File: Samples/PowderCalibrations/11BM_Si640c.xy
XYDATA
! Title:  From feb10/11bmb_4918.mda processed @ 10-02-26 15:06
INTER 1.0 1.0 2 0.0010
TEMP 295.0
! Run no. =               4918
! No. steps =             34000
! Scan time =             FEB 25, 2010 17:14:00.580709
! Sample name =           Silicon (Si), NIST SRM 640c
! Chemical formula =      Si
! Start 2theta =          -6.0
! End 2theta =            28.0
! 2theta step=            0.001
! Time per step =         0.1
! Intensity scale =       5889.57
! Calibration file =      feb10/11bmb_4917.calib
! Calibrated wavelength = 0.412359
!
! 2theta, intensity, sigma(intensity)
0.500000 1015.79 46.5001
0.533000 891.431 43.6138
0.566000 801.892 41.3955
0.599000 681.736 38.2452
0.632000 646.52 37.1871
0.665000 587.133 35.4598
0.698000 621.346 36.3987
0.731000 562.305 34.6396
0.764000 506.042 32.7752
0.797000 452.312 31.0461
0.830000 463.013 31.4089
0.863000 417.767 29.8522
0.896000 407.937 29.5904
0.929000 381.968 28.5037
0.962000 383.15 28.6004
0.995000 357.907 27.5839
1.028000 335.586 26.6228
1.061000 388.96 28.7617
1.094000 347.235 27.2175
1.127000 354.455 27.4591
1.160000 282.996 24.5249
1.193000 330.007 26.5223
1.226000 313.431 25.8846
1.259000 324.171 26.3521
1.292000 276.085 24.2759
1.325000 295.713 25.0904
1.358000 290.271 24.9124
1.391000 348.079 27.1739
1.424000 319.147 26.1935
1.457000 311.86 25.777
1.490000 318.242 26.0109
1.523000 313.079 25.8085
1.556000 290.956 24.8587
1.589000 316.538 26.019
1.622000 292.19 24.9752
1.655000 276.945 24.1931
1.688000 261.165 23.6442
1.721000 233.781 22.265
1.754000 193.21 20.205
1.787000 220.821 21.6597
1.820000 200.935 20.648
1.853000 221.595 21.7795
1.886000 193.041 20.3067
1.919000 196.051 20.4482
1.952000 202.406 20.6653
1.985000 170.67 18.9744
2.018000 216.311 19.2867
2.051000 196.625 18.3873
2.084000 183.415 17.7565
2.117000 179.318 17.5585
2.150000 192.272 18.0923
2.183000 167.79 16.972
2.216000 179.714 17.6178
2.249000 168.639 16.9783
2.282000 164.941 16.8673
2.315000 171.901 17.212
2.348000 177.621 17.5211
2.381000 166.893 16.8918
2.414000 170.066 17.0793
2.447000 152.979 16.2214
2.480000 173.007 17.1532
2.513000 161.54 16.6477
2.546000 159.841 16.5589
2.579000 154.716 16.341
2.612000 138.922 15.4352
2.645000 144.841 15.7939
2.678000 146.21 15.8148
2.711000 141.76 15.4815
2.744000 142.831 15.6669
2.777000 136.073 15.2579
2.810000 145.707 15.7544
2.843000 154.714 16.3092
2.876000 155.808 16.3385
2.909000 140.609 15.5875
2.942000 145.242 15.7382
2.975000 160.916 16.5828
3.008000 145.559 15.8131
3.041000 129.626 14.8857
3.074000 121.37 14.399
3.107000 120.034 14.2891
3.140000 143.021 15.7211
3.173000 165.17 16.818
3.206000 135.893 15.267
3.239000 138.731 15.4627
3.272000 143.61 15.6914
3.305000 139.077 15.4479
3.338000 160.299 16.5311
3.371000 136.436 15.2958
3.404000 136.522 15.3129
3.437000 111.179 13.8064
3.470000 141.968 15.5992
3.503000 132.494 15.0135
3.536000 144.719 15.7762
3.569000 119.21 14.1913
3.602000 148.909 15.9979
3.635000 127.16 14.7081
3.668000 154.95 16.358
3.701000 152.205 16.1067
3.734000 158.395 16.4205
3.767000 142.627 15.6155
3.800000 146.576 15.8321
3.833000 137.364 15.3821
3.866000 154.446 16.2605
3.899000 144.183 15.6912
3.932000 177.629 17.5181
3.965000 135.926 15.2393
3.998000 148.532 16.027
4.031000 150.875 14.5414
4.064000 157.471 14.8585
4.097000 170.163 15.3779
4.130000 178.987 15.8871
4.163000 132 13.5608
4.196000 164.376 15.1551
4.229000 166.98 15.2578
4.262000 180.836 15.9472
4.295000 162.396 15.0556
4.328000 143.328 14.1616
4.361000 170.461 15.4392
4.394000 188.832 16.3338
4.427000 188.975 16.2251
4.460000 177.791 15.7192
4.493000 164.965 15.2358
4.526000 182.712 16.0008
4.559000 187.334 16.1458
4.592000 207.247 17.0256
4.625000 181.204 15.9477
4.658000 186.449 16.1324
4.691000 189.781 16.344
4.724000 210.774 17.1737
4.757000 215.547 17.3768
4.790000 199.629 16.7286
4.823000 209.03 17.0636
4.856000 200.867 16.7118
4.889000 210.127 17.0751
4.922000 193.697 16.4521
4.955000 200.29 16.7395
4.988000 210.454 17.1464
5.021000 213.738 17.3009
5.054000 244.992 18.5094
5.087000 229.208 17.8601
5.120000 250.294 18.7288
5.153000 225.138 17.7635
5.186000 228.212 17.8754
5.219000 227.922 17.771
5.252000 193.931 16.4712
5.285000 219.177 17.487
5.318000 200.852 16.8086
5.351000 192.945 16.4582
5.384000 186.889 16.163
5.417000 188.208 16.2762
5.450000 194.362 16.5165
5.483000 202.227 16.8462
5.516000 225.548 17.6866
5.549000 170.695 15.438
5.582000 177.706 15.7443
5.615000 188.624 16.2247
5.648000 169.425 15.3833
5.681000 200.488 16.7358
5.714000 194.55 16.5137
5.747000 172.702 15.4481
5.780000 162.138 15.006
5.813000 162.052 15.1042
5.846000 141.762 14.0732
5.879000 151.284 14.583
5.912000 147.156 14.3174
5.945000 160.159 14.959
5.978000 145.898 14.3275
6.011000 154.666 13.4366
6.044000 155.445 13.5127
6.077000 139.057 12.6348
6.110000 167.359 14.0207
6.143000 134.052 12.4873
6.176000 154.137 13.4492
6.209000 142.83 12.9659
6.242000 157.937 13.5938
6.275000 152.613 13.3343
6.308000 137.793 12.6359
6.341000 128.7 12.1339
6.374000 151.11 13.204
6.407000 128.725 12.3072
6.440000 134.626 12.5335
6.473000 136.246 12.572
6.506000 124.939 12.1237
6.539000 112.47 11.3229
6.572000 131.086 12.3366
6.605000 123.162 12.0068
6.638000 144.139 13.0081
6.671000 139.865 12.719
6.704000 133.553 12.4174
6.737000 131.533 12.2942
6.770000 154.443 13.4863
6.803000 132.353 12.4416
6.836000 124.922 12.0103
6.869000 125.404 12.1448
6.902000 150.03 13.1421
6.935000 146.822 13.1479
6.968000 133.372 12.5327
7.001000 144.709 13.0491
7.034000 127.75 12.2298
7.067000 133.798 12.5732
7.100000 140.063 12.8424
7.133000 151.696 13.3216
7.166000 125.768 12.1538
7.199000 149.527 13.2323
7.232000 126.716 12.0418
7.265000 140.581 12.8278
7.298000 126.499 12.1243
7.331000 132.532 12.4592
7.364000 149.091 13.096
7.397000 141.168 12.8394
7.430000 190.567 14.8209
7.463000 292.94 18.4296
7.496000 693.752 28.5112
7.529000 9948.39 107.374
7.562000 2307.36 52.0368
7.595000 414.004 22.0035
7.628000 187.673 14.7855
7.661000 160.124 13.7227
7.694000 134.35 12.5326
7.727000 117.889 11.7632
7.760000 109.567 11.2409
7.793000 101.79 10.8226
7.826000 100.03 10.7812
7.859000 114.104 11.5151
7.892000 107.637 11.2313
7.925000 107.85 11.2526
7.958000 115.34 11.5647
7.991000 119.247 11.8025
8.024000 93.3113 9.846221
8.057000 106.578 10.4162
8.090000 101.059 10.1751
8.123000 101.409 10.1664
8.156000 88.9998 9.515523
8.189000 104.566 10.3006
8.222000 107.426 10.4296
8.255000 90.0446 9.594169
8.288000 91.9292 9.762065
8.321000 82.5845 9.270227
8.354000 91.8474 9.673680
8.387000 78.5237 8.961336
8.420000 96.8117 9.917869
8.453000 100.98 10.2513
8.486000 102.82 10.233
8.519000 101.244 10.208
8.552000 79.0156 8.954141
8.585000 85.5147 9.346074
8.618000 93.7273 9.812849
8.651000 100.652 10.2181
8.684000 89.9487 9.594429
8.717000 83.6804 9.261931
8.750000 87.3878 9.465874
8.783000 86.2046 9.459432
8.816000 84.0522 9.287272
8.849000 78.8669 8.940757
8.882000 83.3163 9.253369
8.915000 76.3825 8.894258
8.948000 85.363 9.342721
8.981000 88.2389 9.493403
9.014000 91.2932 9.656971
9.047000 77.4399 8.920841
9.080000 75.843 8.790048
9.113000 81.0845 9.120481
9.146000 82.0493 9.179616
9.179000 82.8931 9.167477
9.212000 91.5096 9.730190
9.245000 73.8354 8.676319
9.278000 87.0765 9.484068
9.311000 78.216 8.905143
9.344000 81.4805 9.071240
9.377000 93.6149 9.773047
9.410000 84.3103 9.303877
9.443000 79.1137 8.989777
9.476000 79.8104 9.049655
9.509000 95.7078 9.907111
9.542000 82.2063 9.179113
9.575000 97.8246 10.0034
9.608000 94.9362 9.820085
9.641000 89.6038 9.591393
9.674000 81.0579 9.117986
9.707000 83.7034 9.290472
9.740000 80.837 9.089653
9.773000 71.6417 8.616116
9.806000 90.8382 9.599802
9.839000 66.152 8.230213
9.872000 90.3735 9.640869
9.905000 98.1636 10.0342
9.938000 89.8461 9.621618
9.971000 88.9861 9.512658
10.004 76.543 8.276787
10.037 79.0051 8.445589
10.07 89.4692 8.862856
10.103 93.4769 9.165577
10.136 71.8983 8.044813
10.169 101.487 9.584929
10.202 87.0338 8.839017
10.235 82.9248 8.601045
10.268 84.3357 8.676135
10.301 93.6524 9.092642
10.334 88.7945 8.913379
10.367 85.6671 8.792933
10.4 83.3147 8.468337
10.433 74.6843 8.191014
10.466 76.4739 8.278394
10.499 94.2722 9.203554
10.532 86.3835 8.787319
10.565 81.3532 8.538826
10.598 74.8791 8.174326
10.631 77.391 8.293458
10.664 87.0229 8.905815
10.697 73.3726 8.072762
10.73 65.5171 7.637165
10.763 98.1768 9.314412
10.796 73.1733 8.037280
10.829 87.2653 8.780028
10.862 86.9893 8.871946
10.895 88.0669 8.842371
10.928 74.7205 8.153991
10.961 80.8068 8.475770
10.994 87.7792 8.840059
11.027 80.5461 8.393842
11.06 93.2152 9.127457
11.093 83.627 8.567755
11.126 93.026 9.127952
11.159 84.4181 8.705549
11.192 94.8591 9.197825
11.225 82.355 8.585464
11.258 102.97 9.571659
11.291 91.429 9.062071
11.324 93.5139 9.100363
11.357 94.2566 9.090234
11.39 89.6597 8.913478
11.423 81.4425 8.498035
11.456 91.8066 9.050849
11.489 80.8791 8.501876
11.522 91.1836 8.999946
11.555 99.3965 9.433663
11.588 85.3375 8.655171
11.621 85.0305 8.682072
11.654 88.2843 8.953497
11.687 98.9179 9.480788
11.72 92.6831 9.025354
11.753 116.815 10.2051
11.786 120.943 10.426
11.819 96.9973 9.277993
11.852 99.1158 9.363373
11.885 106.137 9.721828
11.918 111.825 10.0298
11.951 102.316 9.584985
11.984 114.178 10.1373
12.017 104.545 9.200725
12.05 109.868 9.353384
12.083 92.107 8.606653
12.116 110.592 9.432792
12.149 111.704 9.499509
12.182 122.102 9.926890
12.215 140.714 10.6174
12.248 214.116 13.2017
12.281 517.489 20.4295
12.314 4800.94 62.2765
12.347 2583.97 45.6515
12.38 397.464 17.9233
12.413 179.026 12.0086
12.446 139.147 10.5704
12.479 120.738 9.842124
12.512 107.727 9.325337
12.545 112.5 9.465369
12.578 108.998 9.360892
12.611 107.577 9.326309
12.644 108.171 9.369516
12.677 105.698 9.255204
12.71 126.072 10.0819
12.743 105.138 9.200795
12.776 119.907 9.771267
12.809 103.386 9.132650
12.842 106.874 9.310522
12.875 113.783 9.594264
12.908 108.93 9.374205
12.941 90.0884 8.529280
12.974 99.5638 8.881256
13.007 93.1667 8.655763
13.04 95.6462 8.747518
13.073 93.4583 8.574603
13.106 97.6119 8.895820
13.139 98.8036 8.918844
13.172 95.0462 8.743028
13.205 99.9122 8.975470
13.238 102.658 9.109545
13.271 79.8467 7.990920
13.304 79.5259 7.987572
13.337 87.713 8.425110
13.37 84.8924 8.260441
13.403 79.8329 8.000683
13.436 91.1836 8.624457
13.469 85.3604 8.309515
13.502 80.8105 8.058062
13.535 93.6786 8.721918
13.568 93.0301 8.626319
13.601 98.3196 8.934901
13.634 80.5969 8.064844
13.667 86.3996 8.338508
13.7 97.352 8.873831
13.733 84.4029 8.211002
13.766 94.7946 8.742093
13.799 88.7563 8.457203
13.832 83.7633 8.170394
13.865 94.469 8.664450
13.898 93.5841 8.667821
13.931 97.8882 8.861964
13.964 94.71 8.768424
13.997 91.3972 8.583706
14.03 101.286 8.643371
14.063 102.176 8.637364
14.096 100.733 8.607863
14.129 97.9852 8.478138
14.162 94.6499 8.291564
14.195 106.941 8.794170
14.228 99.5749 8.525969
14.261 100.732 8.590806
14.294 108.164 8.885869
14.327 108.054 8.878382
14.36 116.496 9.232062
14.393 187.642 11.6949
14.426 450.894 18.0974
14.459 12368.1 94.7879
14.492 995.708 26.9465
14.525 226.703 12.8843
14.558 116.488 9.253969
14.591 110.491 8.911231
14.624 96.4791 8.414826
14.657 100.191 8.526385
14.69 98.7914 8.443597
14.723 93.1906 8.235431
14.756 83.6256 7.752376
14.789 82.2771 7.769305
14.822 93.3068 8.219950
14.855 87.9084 8.010492
14.888 79.553 7.581373
14.921 82.2127 7.734401
14.954 75.7345 7.319544
14.987 90.7001 8.100765
15.02 79.8292 7.554276
15.053 82.2251 7.753067
15.086 73.3872 7.299435
15.119 75.1085 7.335259
15.152 84.6112 7.882295
15.185 74.5307 7.361594
15.218 71.4267 7.175485
15.251 72.4743 7.300677
15.284 77.6435 7.520537
15.317 79.5879 7.647256
15.35 81.4641 7.710280
15.383 83.5854 7.838835
15.416 82.489 7.694893
15.449 77.1934 7.481082
15.482 86.8616 7.982196
15.515 80.298 7.673031
15.548 82.5193 7.744275
15.581 83.8451 7.807832
15.614 76.7005 7.454893
15.647 72.0167 7.258471
15.68 73.2545 7.272091
15.713 69.6771 7.073314
15.746 66.4037 6.935313
15.779 67.1178 6.955421
15.812 69.4012 7.084101
15.845 75.8717 7.386705
15.878 80.6916 7.654260
15.911 74.5747 7.362861
15.944 76.9802 7.480073
15.977 78.4033 7.531587
16.01 72.1122 6.948741
16.043 74.9029 7.098852
16.076 86.0905 7.572814
16.109 76.4503 7.171964
16.142 81.7356 7.416171
16.175 68.0143 6.689705
16.208 74.0698 6.985658
16.241 78.7106 7.223704
16.274 75.3414 7.094492
16.307 79.319 7.306104
16.34 72.1812 6.911572
16.373 72.6624 6.948643
16.406 74.1307 7.027846
16.439 72.9258 6.967937
16.472 73.8456 7.016357
16.505 81.9398 7.373030
16.538 79.0949 7.204728
16.571 75.6148 7.095000
16.604 74.2086 7.014471
16.637 68.324 6.696485
16.67 77.1997 7.127575
16.703 63.6891 6.526759
16.736 72.3159 6.975582
16.769 80.3973 7.339742
16.802 69.5683 6.824938
16.835 73.7089 7.029736
16.868 74.2054 7.049362
16.901 63.7948 6.457972
16.934 67.8172 6.669442
16.967 74.9112 7.049167
17 63.2824 6.480563
17.033 72.4427 6.957300
17.066 69.9188 6.815549
17.099 70.2666 6.852579
17.132 74.1473 7.022876
17.165 70.9839 6.894696
17.198 79.47 7.259740
17.231 78.738 7.238731
17.264 75.8082 7.063424
17.297 86.745 7.623020
17.33 77.9428 7.217892
17.363 89.0686 7.685961
17.396 105.179 8.386594
17.429 212.363 11.9003
17.462 5081.58 58.1353
17.495 344.632 15.1585
17.528 127.483 9.233211
17.561 94.6537 7.914070
17.594 84.8328 7.500400
17.627 92.9247 7.881410
17.66 90.035 7.761404
17.693 82.6238 7.356329
17.726 78.4188 7.202120
17.759 79.1437 7.203624
17.792 73.613 6.975096
17.825 73.055 6.917293
17.858 88.7514 7.729155
17.891 82.0499 7.413011
17.924 81.0482 7.314911
17.957 78.4279 7.190740
17.99 93.2884 7.862633
18.023 76.8376 7.102767
18.056 70.3371 6.809289
18.089 76.8421 7.093835
18.122 81.5138 7.324853
18.155 76.7668 7.120136
18.188 83.4895 7.407920
18.221 75.0947 7.047435
18.254 82.7716 7.426946
18.287 81.2476 7.330746
18.32 87.8199 7.618765
18.353 90.0793 7.710602
18.386 80.3987 7.268885
18.419 83.7421 7.471858
18.452 87.5866 7.637093
18.485 83.9314 7.437679
18.518 85.8002 7.569119
18.551 74.5684 6.982171
18.584 75.4714 7.064338
18.617 91.6766 7.782445
18.65 89.4081 7.710016
18.683 100.091 8.180436
18.716 82.0615 7.378543
18.749 87.1175 7.618213
18.782 85.3619 7.519408
18.815 86.9816 7.552867
18.848 97.6567 8.108137
18.881 94.8237 7.916176
18.914 92.7605 7.797227
18.947 113.038 8.637506
18.98 140.359 9.711518
19.013 304.153 14.2912
19.046 17077.5 106.548
19.079 459.265 17.5265
19.112 143.874 9.799839
19.145 119.387 8.905268
19.178 106.777 8.429407
19.211 98.048 8.044907
19.244 88.1879 7.662052
19.277 95.1039 7.941427
19.31 101.948 8.192626
19.343 96.6078 8.005054
19.376 100.406 8.176193
19.409 83.0186 7.435184
19.442 96.1987 8.013034
19.475 92.405 7.817861
19.508 104.896 8.372194
19.541 90.9111 7.777720
19.574 101.409 8.207613
19.607 98.635 8.100066
19.64 87.753 7.637924
19.673 88.3233 7.666906
19.706 94.184 7.918626
19.739 103.548 8.352601
19.772 93.5485 7.870274
19.805 96.9878 8.049246
19.838 89.8936 7.749012
19.871 93.0665 7.875323
19.904 107.192 8.445526
19.937 88.2843 7.600509
19.97 88.6624 7.678064
20.003 90.064 7.687182
20.036 101.091 8.217612
20.069 100.614 8.170069
20.102 96.7154 8.040453
20.135 110.232 8.585346
20.168 105.554 8.393539
20.201 92.818 7.848021
20.234 102.773 8.302189
20.267 110.066 8.523101
20.3 95.7765 7.931277
20.333 93.5872 7.823648
20.366 96.7004 8.047577
20.399 99.6564 8.156899
20.432 107.884 8.441624
20.465 96.4793 8.003367
20.498 95.9605 7.936806
20.531 100.193 8.147219
20.564 90.4241 7.765573
20.597 89.8719 7.657195
20.63 96.0096 7.955116
20.663 97.4665 8.064688
20.696 95.7971 7.945400
20.729 100.997 8.209541
20.762 96.0964 7.978854
20.795 98.8323 8.097470
20.828 101.415 8.202743
20.861 97.8707 8.101600
20.894 109.028 8.534697
20.927 108.773 8.513414
20.96 104.494 8.340309
20.993 120.841 8.963053
21.026 106.983 8.453781
21.059 104.438 8.364764
21.092 116.277 8.805756
21.125 101.98 8.224655
21.158 122.453 9.015759
21.191 117.125 8.832190
21.224 111.141 8.635286
21.257 117.957 8.912271
21.29 118.282 8.884915
21.323 148.557 9.996312
21.356 147.016 9.929700
21.389 272.988 13.531
21.422 2128.21 37.6655
21.455 1302.6 29.4742
21.488 244.654 12.7664
21.521 139.861 9.643520
21.554 129.474 9.292104
21.587 120.012 8.940382
21.62 107.182 8.432895
21.653 103.276 8.294514
21.686 112.205 8.632973
21.719 100.679 8.174482
21.752 117.454 8.914277
21.785 107.53 8.451436
21.818 125.062 9.092334
21.851 111.896 8.644546
21.884 111.992 8.679911
21.917 96.8868 7.995242
21.95 106.475 8.378605
21.983 111.145 8.543207
22.016 113.825 8.666915
22.049 102.588 8.234705
22.082 115.901 8.771141
22.115 85.6469 7.480254
22.148 105.045 8.350164
22.181 112.807 8.690236
22.214 99.7524 8.137008
22.247 101.324 8.243383
22.28 110.007 8.532076
22.313 99.6865 8.177754
22.346 100.705 8.200955
22.379 97.9351 8.087683
22.412 100.807 8.158353
22.445 97.7974 8.003382
22.478 104.948 8.360695
22.511 105.602 8.405404
22.544 104.032 8.298140
22.577 104.23 8.346616
22.61 124.143 9.130605
22.643 113.503 8.685631
22.676 133.066 9.404014
22.709 216.504 11.9879
22.742 1849.1 35.0546
22.775 656.247 20.9154
22.808 170.43 10.6659
22.841 121.481 9.000619
22.874 111.618 8.591226
22.907 93.2777 7.875543
22.94 110.944 8.624897
22.973 109.1 8.493754
23.006 115.67 8.802438
23.039 99.8084 8.160716
23.072 105.505 8.397370
23.105 98.0577 8.081746
23.138 93.5268 7.806234
23.171 110.302 8.570059
23.204 91.0762 7.770568
23.237 103.87 8.295852
23.27 95.1731 7.936111
23.303 91.2136 7.810304
23.336 83.4077 7.434950
23.369 93.521 7.836782
23.402 96.0466 7.963638
23.435 93.4446 7.842231
23.468 81.7575 7.367746
23.501 94.0318 7.918380
23.534 106.175 8.440815
23.567 99.1554 8.123118
23.6 95.4306 7.948552
23.633 97.0797 8.040343
23.666 94.8303 7.953163
23.699 86.1643 7.575256
23.732 91.9119 7.792680
23.765 92.1203 7.849936
23.798 99.3389 8.117220
23.831 91.9622 7.805084
23.864 102.92 8.278062
23.897 90.3989 7.735568
23.93 99.451 8.126390
23.963 95.2945 7.974361
23.996 98.6618 8.130011
24.029 90.4087 7.753462
24.062 94.1919 7.886966
24.095 90.7711 7.765690
24.128 96.5758 8.040261
24.161 91.1772 7.770346
24.194 96.5462 8.002630
24.227 99.1451 8.106784
24.26 94.9439 7.970272
24.293 104.161 8.364210
24.326 90.2113 7.757988
24.359 99.8931 8.130243
24.392 96.8833 7.970388
24.425 101.119 8.171563
24.458 103.804 8.318585
24.491 92.6938 7.849195
24.524 100.535 8.175630
24.557 95.226 7.967846
24.59 107.71 8.457633
24.623 98.4796 8.061844
24.656 99.7594 8.082041
24.689 93.6016 7.914944
24.722 113.647 8.683150
24.755 147.936 9.905529
24.788 811.543 23.3051
24.821 461.935 17.5212
24.854 151.499 10.0694
24.887 108.701 8.496811
24.92 97.5331 8.047356
24.953 109.865 8.549943
24.986 89.9796 7.681575
25.019 97.185 8.007350
25.052 94.4519 7.923219
25.085 97.0361 7.977032
25.118 91.1032 7.759071
25.151 100.019 8.193622
25.184 104.963 8.399039
25.217 111.086 8.614288
25.25 104.971 8.388446
25.283 97.2667 8.031958
25.316 91.8753 7.765640
25.349 96.5976 8.016923
25.382 97.0328 8.020069
25.415 103.668 8.315585
25.448 90.4812 7.767985
25.481 107.129 8.451132
25.514 92.0082 7.828889
25.547 102.215 8.248178
25.58 106.839 8.436796
25.613 102.905 8.303837
25.646 98.4607 8.085170
25.679 87.7369 7.664245
25.712 94.2484 7.956148
25.745 98.1351 8.065088
25.778 105.717 8.326408
25.811 113.916 8.728265
25.844 115.627 8.755659
25.877 118.284 8.812737
25.91 190.561 11.2505
25.943 1141.57 27.5652
25.976 807.042 23.2063
26.009 172.704 10.7254
26.042 127.758 9.162466
26.075 108.681 8.487561
26.108 98.8809 8.115698
26.141 102.842 8.274210
26.174 99.1048 8.139535
26.207 94.4229 7.934699
26.24 90.3868 7.729785
26.273 95.3838 7.981494
26.306 95.1524 7.920802
26.339 83.4782 7.448008
26.372 95.4409 7.959261
26.405 89.4305 7.737939
26.438 89.369 7.691663
26.471 87.9559 7.642576
26.504 97.4945 8.094298
26.537 94.2828 7.915570
26.57 80.7607 7.353960
26.603 92.7088 7.831269
26.636 99.0897 8.133396
26.669 90.9695 7.786111
26.702 85.2667 7.523675
26.735 82.5972 7.400860
26.768 92.7324 7.828218
26.801 90.6754 7.744585
26.834 91.2242 7.751939
26.867 82.4971 7.383803
26.9 80.692 7.260383
26.933 89.9246 7.742131
26.966 99.0978 8.134828
26.999 72.98 6.933522
27.032 95.6476 7.992718
27.065 93.359 7.890106
27.098 88.759 7.659903
27.131 90.5012 7.794993
27.164 82.734 7.446743
27.197 85.1222 7.491118
27.23 76.1818 7.085042
27.263 93.3492 7.904958
27.296 84.1324 7.438838
27.329 90.6293 7.827954
27.362 96.251 7.971681
27.395 97.1476 8.033627
27.428 97.7925 8.073752
27.461 86.4845 7.596878
27.494 97.1328 8.064718
27.527 92.8812 7.863681
27.56 87.9408 7.634309
27.593 100.372 8.197413
27.626 102.32 8.255896
27.659 95.0071 7.910586
27.692 116.792 8.827746
27.725 132.07 9.364561
27.758 353.392 15.3144
27.791 4504.18 54.8653
27.824 204.097 11.6759
27.857 123.375 9.026344
27.89 102.627 8.251158
27.923 91.1567 7.796046
27.956 93.346 7.883523
27.989 96.3232 7.976792
28.022 94.1584 8.239286
28.055 88.3458 7.962753
28.088 97.111 8.375200
28.121 95.0261 8.285592
28.154 85.9266 7.886704
28.187 92.8194 8.217023
28.22 97.1568 8.300691
28.253 85.3414 7.819994
28.286 85.0084 7.848510
28.319 81.731 7.714984
28.352 73.398 7.257482
28.385 79.2849 7.588158
28.418 87.8937 7.961012
28.451 98.8433 8.475418
28.484 97.111 8.331693
28.517 86.7263 7.917292
28.55 93.7324 8.226166
28.583 97.3203 8.415806
28.616 89.862 8.098011
28.649 101.551 8.548470
28.682 98.7117 8.386046
28.715 88.85 8.021788
28.748 98.8877 8.436358
28.781 115.396 9.129219
28.814 410.199 17.2264
28.847 348.595 15.8674
28.88 120.795 9.334518
28.913 95.9842 8.262934
28.946 92.9728 8.209285
28.979 79.3294 7.560830
29.012 95.7905 8.274778
29.045 89.9692 8.026396
29.078 92.0755 8.181994
29.111 83.1524 7.708023
29.144 97.2635 8.373546
29.177 95.4415 8.351406
29.21 88.4871 7.962766
29.243 91.3206 8.111765
29.276 88.2914 7.991365
29.309 82.7002 7.700084
29.342 83.1891 7.701919
29.375 86.353 7.923280
29.408 86.2188 7.849663
29.441 90.97 8.108022
29.474 91.3305 8.115165
29.507 89.0631 8.015282
29.54 88.204 8.005275
29.573 92.9338 8.176063
29.606 79.2198 7.569133
29.639 83.5226 7.788659
29.672 96.5515 8.326538
29.705 101.558 8.597768
29.738 84.6779 7.829147
29.771 93.2402 8.167681
29.804 86.0125 7.877437
29.837 91.6308 8.107707
29.87 103.073 8.632188
29.903 81.0445 7.689116
29.936 91.2216 8.103605
29.969 88.8888 8.001896
30.002 90.7018 8.440102
30.035 81.8341 8.040104
30.068 76.0077 7.748634
30.101 88.1598 8.321784
30.134 80.5294 7.954613
30.167 89.2212 8.431781
30.2 81.2079 7.995420
30.233 99.2009 8.892928
30.266 86.6469 8.300021
30.299 95.0647 8.693179
30.332 83.0506 7.996545
30.365 97.3142 8.758542
30.398 87.3611 8.327616
30.431 106.266 9.217527
30.464 128.113 10.0589
30.497 3022.74 49.028
30.53 126.27 10.0403
30.563 106.175 9.117012
30.596 93.5994 8.593951
30.629 82.5972 8.066644
30.662 96.6285 8.759169
30.695 92.34 8.543251
30.728 93.0094 8.608577
30.761 77.6302 7.819465
30.794 82.7627 8.028689
30.827 88.1018 8.408650
30.86 90.0318 8.416731
30.893 91.6126 8.511188
30.926 104.393 9.048008
30.959 99.3437 8.840320
30.992 93.6115 8.631849
31.025 80.03 8.004755
31.058 101.288 8.926848
31.091 101.636 8.921033
31.124 94.673 8.606270
31.157 106.814 9.147699
31.19 92.2748 8.569753
31.223 87.1752 8.268371
31.256 91.4504 8.542436
31.289 100.088 8.814692
31.322 94.7114 8.614590
31.355 95.1233 8.662618
31.388 117.065 9.634250
31.421 171.817 11.6755
31.454 2962.05 48.3759
31.487 244.766 13.9819
31.52 109.439 9.317729
31.553 107.807 9.188547
31.586 97.6816 8.791424
31.619 94.6039 8.633431
31.652 91.9013 8.507908
31.685 101.021 8.949372
31.718 103.968 9.102329
31.751 96.9106 8.747950
31.784 91.337 8.440084
31.817 105.823 9.176052
31.85 102.144 9.032954
31.883 96.4837 8.732073
31.916 101.762 8.983649
31.949 95.9024 8.669810
31.982 95.7547 8.685308
32.015 95.1381 9.104858
32.048 93.9504 8.951879
32.081 105.218 9.677660
32.114 98.3416 9.277124
32.147 92.7218 9.016739
32.18 98.3876 9.202347
32.213 97.6959 9.279271
32.246 99.7385 9.350889
32.279 95.8113 9.106913
32.312 97.9779 9.249657
32.345 96.106 9.154930
32.378 99.3461 9.290319
32.411 103.974 9.584712
32.444 108.963 9.720503
32.477 101.987 9.441466
32.51 103.186 9.572313
32.543 101.225 9.436621
32.576 98.5105 9.260016
32.609 96.966 9.232028
32.642 105.376 9.533373
32.675 101.352 9.504315
32.708 103.067 9.477960
32.741 107.452 9.733228
32.774 107.87 9.777013
32.807 113.617 10.0035
32.84 96.1092 9.123810
32.873 127.913 10.5909
32.906 123.123 10.4466
32.939 133.94 10.8101
32.972 227.426 14.1365
33.005 8031.26 84.0199
33.038 320.305 16.7948
33.071 138.465 11.0372
33.104 117.682 10.1743
33.137 111.887 9.941754
33.17 104.157 9.528350
33.203 112.002 9.953877
33.236 104.636 9.563652
33.269 81.5736 8.472939
33.302 102.602 9.402226
33.335 102.185 9.464644
33.368 103.643 9.537137
33.401 93.1672 9.071480
33.434 95.7032 9.143309
33.467 99.5352 9.364486
33.5 98.256 9.262095
33.533 102.557 9.548224
33.566 104.659 9.569148
33.599 92.526 8.872131
33.632 102.723 9.443864
33.665 102.13 9.445366
33.698 99.617 9.358422
33.731 100.092 9.404308
33.764 92.3007 8.998565
33.797 101.887 9.464451
33.83 113.483 10.0094
33.863 147.825 11.3664
33.896 1058.6 30.4699
33.929 336.766 17.1898
33.962 135.779 10.9515
33.995 111.215 9.761720
34.028 95.0065 9.552747
34.061 110.001 10.2974
34.094 85.2517 9.109371
34.127 113.597 10.4887
34.16 95.54 9.648112
34.193 84.818 9.071115
34.226 102.452 10.0035
34.259 97.4872 9.751775
34.292 91.6401 9.434877
34.325 95.2134 9.617073
34.358 88.5711 9.299583
34.391 82.7795 8.947366
34.424 94.8185 9.645455
34.457 83.6749 8.941581
34.49 94.3093 9.506812
34.523 91.4877 9.440579
34.556 93.4297 9.523017
34.589 97.2293 9.710170
34.622 102.659 9.893431
34.655 92.5961 9.476929
34.688 83.9372 9.012180
34.721 98.4718 9.822225
34.754 86.4284 9.173367
34.787 102.171 9.929376
34.82 98.8958 9.789633
34.853 89.0877 9.294328
34.886 84.9458 9.065420
34.919 84.5435 8.966414
34.952 89.1708 9.317536
34.985 90.9633 9.430691
35.018 88.4081 9.188027
35.051 81.2649 8.847746
35.084 84.9829 9.005043
35.117 80.4482 8.820741
35.15 69.1094 8.144359
35.183 85.8916 9.128110
35.216 90.5314 9.378261
35.249 76.7353 8.528384
35.282 88.4918 9.244946
35.315 81.9347 8.901907
35.348 221.456 14.5776
35.381 137.708 11.5657
35.414 104.792 10.0868
35.447 81.9458 8.858883
35.48 92.5467 9.514502
35.513 85.8184 9.122719
35.546 76.4806 8.610088
35.579 91.5287 9.391391
35.612 82.3528 8.922843
35.645 84.9379 9.036835
35.678 83.6289 8.978563
35.711 82.9375 9.046562
35.744 80.6669 8.923225
35.777 80.4074 8.773301
35.81 87.5714 9.205228
35.843 77.8564 8.672185
35.876 68.4936 8.105731
35.909 79.4466 8.692726
35.942 92.6435 9.445267
35.975 89.6042 9.250979
36.008 87.9904 9.777500
36.041 85.0467 9.630521
36.074 75.7728 9.072419
36.107 82.9039 9.487186
36.14 90.8015 9.908404
36.173 93.1411 10.0512
36.206 1496.15 40.389
36.239 107.998 10.7035
36.272 96.2789 10.218
36.305 81.7157 9.434744
36.338 89.4341 9.877022
36.371 79.7904 9.304382
36.404 72.407 8.840571
36.437 75.7674 8.950270
36.47 70.4273 8.686294
36.503 81.6129 9.401751
36.536 76.8731 9.071137
36.569 76.7331 9.088347
36.602 72.4354 8.841360
36.635 86.6251 9.680650
36.668 91.3759 9.944428
36.701 68.6738 8.639638
36.734 82.587 9.471174
36.767 76.1419 9.028300
36.8 75.6725 9.037384
36.833 74.5734 9.003030
36.866 80.5486 9.281854
36.899 73.3711 8.916750
36.932 93.3176 10.0552
36.965 89.3267 9.852186
36.998 84.2882 9.589165
37.031 77.2267 9.146896
37.064 80.9185 9.415451
37.097 76.5111 9.092097
37.13 81.8336 9.402071
37.163 93.9457 10.0663
37.196 77.1166 9.157447
37.229 83.9512 9.482759
37.262 81.2376 9.339166
37.295 78.2367 9.280462
37.328 83.5521 9.517982
37.361 71.4619 8.651074
37.394 78.736 9.231434
37.427 85.093 9.522081
37.46 90.4915 9.921480
37.493 86.091 9.727875
37.526 115.659 11.1869
37.559 196.7 14.6026
37.592 983.423 32.6368
37.625 134.046 12.0306
37.658 102.799 10.5605
37.691 86.4607 9.629414
37.724 93.0794 10.1062
37.757 82.1778 9.367484
37.79 80.4334 9.375548
37.823 87.4433 9.715051
37.856 69.8887 8.667179
37.889 82.9637 9.428390
37.922 84.4507 9.586426
37.955 91.0918 9.915512
37.988 91.2376 9.946969
38.021 79.6362 10.1103
38.054 92.5814 10.7496
38.087 80.851 10.1795
38.12 79.9217 10.0586
38.153 95.8583 11.0653
38.186 69.2614 9.331240
38.219 91.7551 10.6516
38.252 87.5908 10.5913
38.285 93.4971 10.8927
38.318 105.459 11.555
38.351 122.908 12.4344
38.384 2060.25 51.2425
38.417 144.368 13.5488
38.45 115.53 12.1437
38.483 85.3395 10.3469
38.516 77.1011 9.967174
38.549 72.5654 9.627261
38.582 98.2156 11.1128
38.615 73.551 9.595576
38.648 91.7175 10.7189
38.681 92.491 10.758
38.714 73.1788 9.675148
38.747 69.6066 9.402830
38.78 72.8076 9.624751
38.813 84.3958 10.338
38.846 72.5335 9.573843
38.879 85.0517 10.4432
38.912 81.6721 10.1908
38.945 79.1462 10.0417
38.978 56.4632 8.470615
39.011 80.8448 10.124
39.044 101.385 11.3623
39.077 68.0475 9.263006
39.11 90.7127 10.7068
39.143 64.4571 8.981047
39.176 73.9357 9.602018
39.209 67.4527 9.215696
39.242 76.5416 9.853370
39.275 73.8712 9.669130
39.308 80.0886 10.1934
39.341 72.3656 9.586174
39.374 80.2131 10.1072
39.407 83.1705 10.299
39.44 75.5459 9.777675
39.473 73.0347 9.638125
39.506 73.8343 9.718830
39.539 82.2459 10.139
39.572 75.8682 9.837570
39.605 87.9823 10.6318
39.638 89.8331 10.6867
39.671 137.728 13.2624
39.704 1107.65 37.5819
39.737 96.2142 11.0467
39.77 95.1702 10.9527
39.803 67.0113 9.216352
39.836 96.9352 11.0681
39.869 54.3327 8.333607
39.902 78.9083 10.0734
39.935 69.1774 9.348842
39.968 85.9879 10.4532
40.001 69.1851 10.2498
40.034 96.8521 12.338
40.067 93.306 11.9415
40.1 77.5705 10.9629
40.133 81.3887 11.236
40.166 92.159 11.992
40.199 85.1703 11.5664
40.232 88.2515 11.728
40.265 67.6091 10.2171
40.298 94.916 12.0554
40.331 96.9646 12.2401
40.364 94.251 12.1149
40.397 97.8698 12.3981
40.43 109.232 12.9277
40.463 1659.16 50.8039
40.496 150.39 15.2794
40.529 101.821 12.5142
40.562 69.3648 10.3199
40.595 93.5534 12.0572
40.628 77.5514 10.868
40.661 88.3066 11.7315
40.694 78.3658 11.0106
40.727 65.6676 9.985973
40.76 93.3819 12.1065
40.793 56.22 9.276927
40.826 79.2626 11.134
40.859 70.0651 10.4002
40.892 60.0917 9.571502
40.925 71.7236 10.504
40.958 77.7877 10.9407
40.991 88.6655 11.7302
41.024 71.3029 10.5366
41.057 83.8688 11.4404
41.09 67.166 10.1062
41.123 78.5436 11.0742
41.156 71.7136 10.5544
41.189 66.4975 10.2038
41.222 69.3748 10.2888
41.255 109.51 13.0218
41.288 65.9468 10.0999
41.321 69.3446 10.3536
41.354 59.2807 9.572291
41.387 70.7379 10.4479
41.42 66.9825 10.2295
41.453 77.2538 10.8987
41.486 70.9846 10.4763
41.519 96.5363 12.2201
41.552 91.0812 11.8712
41.585 81.4077 11.1592
41.618 83.0906 11.3547
41.651 71.3306 10.5158
41.684 73.6709 10.7055
41.717 651.121 31.8231
41.75 132.167 14.3917
41.783 81.0801 11.262
41.816 80.7 11.227
41.849 72.1969 10.6502
41.882 86.5405 11.5999
41.915 77.0558 10.9464
41.948 65.0612 10.0412
41.981 77.4044 10.9357
42.014 54.0374 10.1244
42.047 74.3948 11.8601
42.08 82.141 12.4884
42.113 74.2493 11.8332
42.146 75.1721 11.9739
42.179 84.2621 12.657
42.212 76.3016 11.9817
42.245 79.1621 12.1716
42.278 80.3559 12.3392
42.311 75.3603 11.9591
42.344 76.4093 12.0034
42.377 68.9571 11.3745
42.41 86.9262 12.9289
42.443 165.067 17.7815
42.476 240.106 21.3195
42.509 121.004 15.1708
42.542 91.6856 13.1711
42.575 84.7535 12.6562
42.608 61.2373 10.7238
42.641 75.864 11.9359
42.674 53.7727 10.0353
42.707 76.7248 12.0444
42.74 70.1826 11.6268
42.773 81.0969 12.3228
42.806 75.6943 12.0488
42.839 71.0379 11.6224
42.872 85.6684 12.8088
42.905 66.017 11.2244
42.938 71.1235 11.7411
42.971 75.0626 11.8732
43.004 77.5214 12.259
43.037 82.8291 12.4937
43.07 84.2881 12.7032
43.103 63.4126 10.9743
43.136 65.4074 11.0705
43.169 83.0112 12.5388
43.202 64.9553 11.0718
43.235 78.5893 12.1594
43.268 96.0649 13.4266
43.301 69.8868 11.5448
43.334 92.2869 13.2193
43.367 60.9796 10.7516
43.4 65.3343 11.1234
43.433 65.9248 11.0494
43.466 72.7474 11.7727
43.499 73.018 11.7881
43.532 79.0091 12.2664
43.565 88.497 12.89
43.598 69.4182 11.4456
43.631 90.3927 13.0513
43.664 442.324 29.0624
43.697 92.6818 13.2308
43.73 85.0021 12.5689
43.763 88.5191 13.062
43.796 78.441 12.2262
43.829 52.5886 9.820681
43.862 82.5365 12.5209
43.895 82.6129 12.5126
43.928 54.2185 10.0627
43.961 86.7572 12.9034
43.994 69.566 11.5985
44.027 57.261 12.2319
44.06 86.5487 15.1141
44.093 71.7452 13.8029
44.126 60.8614 12.5817
44.159 53.3665 11.8738
44.192 79.1884 14.3875
44.225 60.5762 12.6725
44.258 68.2956 13.2677
44.291 57.1981 12.1322
44.324 82.4972 14.6742
44.357 111.011 17.0973
44.39 881.584 48.1739
44.423 83.3222 14.8322
44.456 73.0354 13.7943
44.489 68.4767 13.3537
44.522 59.2161 12.426
44.555 76.9951 14.2431
44.588 58.8619 12.391
44.621 98.1565 15.8756
44.654 57.5442 12.1631
44.687 86.6363 15.0499
44.72 57.1758 12.2959
44.753 60.5095 12.4314
44.786 73.2345 13.8455
44.819 69.5327 13.5444
44.852 69.556 13.5412
44.885 63.3085 12.8812
44.918 64.0313 12.9418
44.951 59.1433 12.4415
44.984 77.7643 14.3327
45.017 73.502 13.74
45.05 58.5783 12.2166
45.083 76.748 14.1915
45.116 86.9849 15.1132
45.149 65.6748 13.1149
45.182 71.724 13.6837
45.215 56.247 12.1028
45.248 65.6289 13.1356
45.281 75.6031 14.0431
45.314 84.7036 14.889
45.347 95.1853 15.8007
45.38 69.94 13.5846
45.413 97.8073 15.9359
45.446 61.2537 12.6192
45.479 71.9928 13.7958
45.512 118.885 17.6669
45.545 1000.89 51.3561
45.578 158.208 20.3612
45.611 95.2979 15.8274
45.644 101.245 16.3482
45.677 72.7906 13.7764
45.71 81.4764 14.6073
45.743 73.4918 13.8885
45.776 64.8803 12.9471
45.809 95.5786 15.8231
45.842 65.6299 13.0932
45.875 63.2218 12.9085
45.908 54.4188 11.7962
45.941 56.0988 12.1021
45.974 63.9029 12.9491
46.007 55.9095 14.639
46.04 51.2354 13.836
46.073 59.9425 15.2169
46.106 83.943 17.9753
46.139 61.4974 15.4167
46.172 75.0381 16.9969
46.205 81.9046 17.7624
46.238 714.974 52.6561
46.271 95.3593 19.1457
46.304 61.0398 15.0646
46.337 54.5145 14.5098
46.37 72.9509 16.7525
46.403 58.7042 15.0106
46.436 76.288 17.1313
46.469 36.5719 11.8781
46.502 72.9956 16.6878
46.535 34.1405 11.1117
46.568 63.6291 15.6115
46.601 41.3153 12.51
46.634 66.0783 15.994
46.667 75.4503 16.9978
46.7 78.7121 17.3285
46.733 73.4083 16.821
46.766 51.8385 14.1838
46.799 82.2437 17.7321
46.832 72.951 16.6753
46.865 52.3252 13.7515
46.898 73.4176 16.6028
46.931 56.8857 14.7972
46.964 58.2246 15.0122
46.997 56.1313 14.6045
47.03 81.1611 17.6699
47.063 64.1866 15.4392
47.096 76.5239 17.2222
47.129 62.111 15.5026
47.162 65.1299 15.8607
47.195 55.9976 14.6829
47.228 65.5947 15.9137
47.261 76.692 17.231
47.294 63.061 15.6353
47.327 61.1246 15.0625
47.36 46.3661 13.3856
47.393 59.976 15.2252
47.426 54.3789 14.4912
47.459 55.0732 14.5885
47.492 40.5133 12.3547
47.525 54.224 14.3859
47.558 71.4139 16.6095
47.591 66.8224 16.0579
47.624 52.3507 14.1989
47.657 44.1936 12.9498
47.69 66.6193 15.9002
47.723 65.2436 15.8642
47.756 73.7017 16.7677
47.789 43.1836 12.8927
47.822 69.8569 16.466
47.855 71.1764 16.3548
47.888 46.2662 13.3442
47.921 56.1846 14.7228
47.954 58.9735 14.9244
47.987 53.381 14.2555
48.02 55.6644 19.6053
48.053 265.351 45.6269
48.086 67.3029 22.9479
48.119 54.9499 20.7691
48.152 36.0023 16.4276
48.185 47.1108 19.2329
48.218 45.6931 18.779
48.251 15.6686 11.0794
48.284 57.9879 21.3219
48.317 108.025 29.093
48.35 56.1238 20.8846
48.383 77.4289 24.5886
48.416 52.0996 19.577
48.449 49.1061 19.5806
48.482 54.8771 20.7416
48.515 66.9096 22.7603
48.548 51.3128 19.8297
48.581 64.8282 22.5021
48.614 65.6812 22.7051
48.647 54.9157 20.7562
48.68 44.8671 18.71
48.713 68.5029 23.2832
48.746 46.2282 18.2905
48.779 51.928 19.9606
48.812 38.9932 17.2894
48.845 55.0007 20.7883
48.878 54.8513 20.6428
48.911 72.9391 23.2952
48.944 39.2865 17.5694
48.977 62.7529 22.1152
49.01 39.3163 17.5828
49.043 75.9167 24.409
49.076 60.0098 21.6601
49.109 73.6337 24.0384
49.142 672.114 72.6852
49.175 104.352 28.5891
49.208 25.5525 13.6644
49.241 52.4731 20.2756
49.274 52.5798 18.797
49.307 52.8969 19.5416
49.34 56.6963 20.9643
49.373 33.0181 15.7815
49.406 36.9201 17.0028
49.439 48.1544 19.3274
49.472 68.7261 22.9924
49.505 76.3464 23.9547
49.538 70.8207 23.6069
49.571 50.5187 19.8642
49.604 69.0093 22.6285
49.637 76.4943 24.5244
49.67 52.9406 20.4019
49.703 75.9111 24.257
49.736 59.8216 21.3868
49.769 37.7936 17.1061
49.802 308.701 49.2906
49.835 59.217 21.5577
49.868 90.4775 26.6778
49.901 33.6087 15.8056
49.934 58.9263 21.4761
49.967 64.7792 22.547
49.995 39.1948 17.3219