File: Samples/PowderCalibrations/11BM_NAC.xy
XYDATA
! Title: NAC /nov12/11bmb_1804
! Run no. =               1804
! No. steps =             54000
! Scan time =             NOV 29, 2012 18:07:11.0256
! Sample Comment =        NAC
! User sample name =      1.5 mm diameter
! Composition =           Na2Ca3Al2F14
! Temp (K) =              298.0
! Start 2theta (deg) =    -16.0
! End 2theta (deg) =      38.0
! 2theta step (deg) =     0.001
! Time per step (sec) =   0.1
! Intensity scale =       9383.83
! Calibration file =      11bmb_1800_2thcorrected.calib
! 2Theta correction subtracted
! Calibrated wavelength = 0.413909
! Fullprof format INSTRM=10 (x, y, sigma)
INTER 1.0 1.0  2 0.00100
! ---------------------------------------
! degrees       intensity        sigma
0.50000       239.9326        16.0755
0.54699       201.5199        14.8030
0.59399       249.2298        16.5105
0.64098       243.4079        16.2100
0.68798       309.3415        18.2795
0.73497       328.8767        18.8773
0.78196       337.5298        19.1738
0.82896       324.9244        18.8301
0.87595       320.8565        18.6383
0.92295       308.8366        18.2594
0.96994       328.5038        18.9112
1.01693       302.4285        18.0815
1.06393       286.6205        17.6251
1.11092       255.9969        16.6297
1.15791       253.8799        16.6306
1.20491       246.9012        16.4287
1.25190       253.6973        16.5657
1.29890       288.5560        17.6865
1.34589       256.4865        16.6642
1.39288       269.3998        17.1712
1.43988       277.6090        17.3963
1.48687       304.3850        18.2642
1.53387       287.5848        17.6274
1.58086       292.0559        17.7643
1.62785       255.1935        16.6222
1.67485       252.4048        16.6088
1.72184       233.3390        15.9994
1.76884       226.1680        15.6748
1.81583       224.1808        15.6533
1.86282       201.4014        14.8807
1.90982       198.7014        14.6168
1.95681       187.8967        14.2712
2.00381       161.2694        12.6207
2.05080       160.2677        12.5317
2.09779       181.4461        13.2634
2.14479       177.8097        13.1123
2.19178       186.4564        13.4821
2.23878       193.6182        13.7826
2.28577       164.9810        12.7339
2.33276       182.0646        13.3418
2.37976       169.3861        12.8227
2.42675       166.2825        12.7422
2.47374       180.3577        13.2484
2.52074       169.3547        12.9572
2.56773       144.8373        11.8502
2.61473       159.7700        12.4744
2.66172       160.0481        12.5182
2.70871       166.0186        12.7280
2.75571       162.0150        12.6558
2.80270       163.0524        12.5785
2.84970       174.8633        13.1433
2.89669       181.1248        13.3880
2.94368       158.4879        12.4340
2.99068       159.7924        12.4831
3.03767       195.2395        13.7941
3.08467       177.4661        13.2007
3.13166       177.7894        13.1338
3.17865       154.1130        12.3003
3.22565       229.8034        15.0239
3.27264     43767.8       207.3171
3.31964       200.2564        13.8628
3.36663       157.6005        12.3860
3.41362       168.7787        12.9292
3.46062       174.2677        13.0356
3.50761       145.3857        11.8707
3.55461       165.1061        12.7574
3.60160       173.1052        12.9643
3.64859       183.6210        13.3996
3.69559       184.2988        13.4208
3.74258       177.0125        13.1191
3.78957       171.0639        12.9128
3.83657       182.0238        13.4008
3.88356       182.9220        13.4190
3.93056       222.8885        14.8566
3.97755       193.6088        13.8107
4.02454       182.3781        12.6428
4.07154       215.4869        13.7690
4.11853       182.8478        12.7490
4.16553       202.8748        13.4345
4.21252       201.4034        13.2798
4.25951       211.8278        13.6035
4.30651       214.5299        13.7247
4.35350       212.3826        13.6693
4.40050       226.2726        14.1543
4.44749       210.6021        13.6718
4.49448       223.8644        14.0784
4.54148       252.4593        14.9096
4.58847       278.2805        15.6374
4.63547      1886.79        40.6770
4.68246       248.4481        14.7673
4.72945       248.4671        14.7722
4.77645       246.7640        14.7156
4.82344       235.6092        14.4203
4.87043       259.8485        15.2042
4.91743       268.4845        15.3792
4.96442       267.8428        15.3228
5.01142       287.7510        15.9476
5.05841       299.4877        16.3177
5.10540       288.6685        16.0065
5.15240       296.4900        16.1601
5.19939       279.6149        15.6696
5.24639       261.7381        15.2247
5.29338       248.7276        14.7891
5.34037       262.6523        15.1961
5.38737       269.6673        15.5024
5.43436       275.6539        15.6466
5.48136       260.7330        15.0754
5.52835       264.8553        15.2931
5.57534       313.5215        16.6791
5.62234       525.0569        21.4919
5.66933    209177       430.4819
5.71633       398.4095        18.7065
5.76332       249.7159        14.8146
5.81031       246.4350        14.7508
5.85731       228.4430        14.2075
5.90430       226.9689        14.1249
5.95130       234.1015        14.4820
5.99829       216.4932        13.8255
6.04528       227.0460        13.5416
6.09228       222.0282        13.4452
6.13927       206.9902        12.8990
6.18626       233.8002        13.7078
6.23326       237.3347        13.9238
6.28025       222.3331        13.3814
6.32725       228.2117        13.5664
6.37424       232.5735        13.7429
6.42123       247.3491        14.1173
6.46823       284.9047        15.1020
6.51522       552.4494        21.1378
6.56222      1562.82        35.3493
6.60921       240.3036        13.8712
6.65620       208.0192        12.9384
6.70320       246.3664        14.0664
6.75019       233.6459        13.7631
6.79719       224.8165        13.4695
6.84418       221.9915        13.3680
6.89117       264.1149        14.6056
6.93817       262.6604        14.5762
6.98516       231.9657        13.6555
7.03216       233.4396        13.6800
7.07915       245.8162        14.0332
7.12614       258.5627        14.4107
7.17314       240.1101        13.8998
7.22013       258.8559        14.4752
7.26713       376.1686        17.3793
7.31412     12376.8        99.5019
7.36111       436.0524        18.8176
7.40811       259.4368        14.4483
7.45510       264.5727        14.6470
7.50209       375.0636        17.3901
7.54909       312.8834        15.9058
7.59608       235.6878        13.8020
7.64308       239.7662        13.9106
7.69007       226.1415        13.5313
7.73706       225.9576        13.5469
7.78406       257.5137        14.3705
7.83105       260.6956        14.5350
7.87805       232.3914        13.6696
7.92504       294.5642        15.4685
7.97203       492.8486        19.9660
8.01903    172757       373.4914
8.06602       403.2652        18.0681
8.11302       251.3823        14.2578
8.16001       237.3323        13.8070
8.20700       261.3350        14.5246
8.25400       231.2766        13.6624
8.30099       244.2797        14.0092
8.34799       237.4405        13.7993
8.39498       222.4525        13.3340
8.44197       223.2899        13.4227
8.48897       231.1652        13.6429
8.53596       243.0081        14.0113
8.58295       254.4360        14.2837
8.62995       373.5125        17.3531
8.67694      1089.14        29.5668
8.72394       230.4579        13.5294
8.77093       233.9135        13.7422
8.81792       230.4415        13.6396
8.86492       227.1978        13.5219
8.91191       235.1657        13.7573
8.95891       219.7912        13.2807
9.00590       229.8546        13.5809
9.05289       251.7165        14.2527
9.09989       241.6956        13.9355
9.14688       217.8113        13.2957
9.19388       235.7544        13.7571
9.24087       225.2663        13.4391
9.28786       264.2778        14.6509
9.33486       255.5947        14.4254
9.38185       249.5980        14.2123
9.42885       239.7115        13.8531
9.47584       228.9746        13.6039
9.52283       227.0302        13.5269
9.56983       249.5941        14.2274
9.61682       284.3007        15.2065
9.66382       259.3980        14.4635
9.71081       259.4100        14.4480
9.75780       306.7880        15.6800
9.80480       681.2410        23.3995
9.85179       608.1149        22.1577
9.89878       268.3139        14.6948
9.94578       285.0731        15.1446
9.99277       259.9577        14.4954
10.03977       290.0727        15.3128
10.08676       259.4735        14.4705
10.13375       287.0111        15.1779
10.18075       259.7645        14.4692
10.22774       283.8246        15.1707
10.27474       314.8734        15.9360
10.32173       408.3038        18.1746
10.36872      2109.84        41.0836
10.41572       304.7500        15.6995
10.46271       284.8216        15.1427
10.50971       288.1109        15.1925
10.55670       264.9107        14.5904
10.60369       315.7175        15.9835
10.65069       288.1049        15.2431
10.69768       284.7700        15.1488
10.74468       320.1241        16.0705
10.79167       415.9877        18.3307
10.83866       959.8145        27.8273
10.88566      1888.95        38.9466
10.93265       353.8167        16.8284
10.97965       337.1925        16.5016
11.02664       313.6050        15.8736
11.07363       314.2548        15.8849
11.12063       304.3259        15.6605
11.16762       305.2404        15.6280
11.21461       329.7370        16.2685
11.26161       312.9456        15.9265
11.30860       335.2504        16.5299
11.35560      2902.94        48.0578
11.40259       323.6083        16.1745
11.44958       327.0150        16.2564
11.49658       339.2668        16.5450
11.54357       331.4756        16.3917
11.59057       342.3979        16.5746
11.63756       338.5828        16.5552
11.68455       363.3647        17.1555
11.73155       454.4194        19.1626
11.77854       871.3404        26.4655
11.82554     10506.2        91.7315
11.87253       479.6734        19.6902
11.91952       388.4083        17.6995
11.96652       366.7883        17.1805
12.01351       391.9094        17.7814
12.06051       399.6941        18.0250
12.10750       373.5913        17.3562
12.15449       350.3224        16.7582
12.20149       364.5872        17.1382
12.24848       412.3002        18.2254
12.29548      8570.62        83.5982
12.34247       369.9109        17.2634
12.38946       341.0536        16.6233
12.43646       346.1139        16.7388
12.48345       363.5431        17.1257
12.53044       359.8100        17.0112
12.57744       361.9029        17.0488
12.62443       483.9892        19.7656
12.67143      1235.42        31.5213
12.71842      1556.55        35.3771
12.76541       395.3109        17.8480
12.81241       357.8635        16.9475
12.85940       386.1948        17.6263
12.90640       380.7818        17.5315
12.95339       368.0477        17.2082
13.00038       396.7138        17.8859
13.04738       498.0508        20.0488
13.09437      1678.21        36.7210
13.14137      1166.19        30.7905
13.18836       409.3040        18.1865
13.23535       412.8466        18.2884
13.28235       342.5932        16.6060
13.32934       376.9009        17.4414
13.37634       327.6626        16.2399
13.42333       387.3482        17.6374
13.47032       363.0923        17.1190
13.51732      7897.69        79.3977
13.56431       389.5291        17.8050
13.61130       353.3892        16.9524
13.65830       359.7353        17.0624
13.70529       356.9198        17.0412
13.75229       359.1800        17.0148
13.79928       331.6384        16.3717
13.84627       338.7620        16.5303
13.89327       488.6903        19.8203
13.94026       450.1817        19.0567
13.98726       360.3360        16.9960
14.03425       360.4175        17.0533
14.08124       354.4546        16.9280
14.12824       367.8708        17.2247
14.17523       373.3480        17.3309
14.22223       444.5162        18.8946
14.26922       905.6749        26.9696
14.31621      1671.02        36.6764
14.36321       424.0818        18.4248
14.41020       584.5522        21.6924
14.45720       534.8967        20.8107
14.50419       358.9963        17.0068
14.55118       355.3368        16.9360
14.59818       354.0085        16.8473
14.64517       374.3498        17.3886
14.69217       402.7322        17.9739
14.73916       346.5417        16.7210
14.78615       340.9027        16.5774
14.83315       342.7624        16.6069
14.88014       369.3052        17.2901
14.92713       349.7804        16.8150
14.97413       366.4741        17.2028
15.02112       778.4062        25.0120
15.06812       424.6629        18.5046
15.11511       363.0053        17.1203
15.16210       350.7117        16.8157
15.20910       375.5496        17.4415
15.25609       364.1397        17.1014
15.30309       400.4138        17.9572
15.35008       566.7910        21.4178
15.39707     12271.2        98.9240
15.44407       401.7275        18.0257
15.49106       345.6208        16.6458
15.53806       370.4726        17.2488
15.58505       330.4724        16.3392
15.63204       375.9826        17.3942
15.67904       386.2599        17.6472
15.72603       873.4529        26.5235
15.77303       413.6929        18.3049
15.82002       309.6169        15.7537
15.86701       356.0918        16.9230
15.91401       333.9180        16.3982
15.96100       357.8797        17.0205
16.00800       375.3602        17.3877
16.05499       515.8645        20.4023
16.10198       498.7066        20.0285
16.14898       358.5284        17.0124
16.19597       317.0614        15.9812
16.24296       341.1444        16.5495
16.28996       325.1961        16.2658
16.33695       328.9296        16.3098
16.38395       383.8222        17.6308
16.43094       501.6611        20.1599
16.47793       346.9918        16.6524
16.52493       320.2399        16.0404
16.57192       320.5466        16.0869
16.61892       330.4952        16.3036
16.66591       373.7945        17.3096
16.71290       428.8298        18.5307
16.75990       524.3612        20.5718
16.80689       339.8226        16.5391
16.85389       339.4261        16.5635
16.90088       343.6797        16.6752
16.94787       345.2532        16.6641
16.99487       404.4020        18.0375
17.04186       573.7030        21.4504
17.08886       492.2857        19.9514
17.13585       332.9627        16.3840
17.18284       334.9267        16.4330
17.22984       342.3191        16.5874
17.27683       335.4994        16.5075
17.32382       358.3885        16.9739
17.37082      1895.36        38.9427
17.41781       532.8813        20.7336
17.46481       356.2539        16.9552
17.51180       332.7592        16.3823
17.55879       320.6304        16.0432
17.60579       353.3739        16.9161
17.65278       376.3094        17.4224
17.69978       484.7461        19.7726
17.74677       335.7158        16.4755
17.79376       333.3814        16.4117
17.84076       329.5022        16.2866
17.88775       321.1568        16.0275
17.93475       331.9722        16.4055
17.98174       336.5673        16.5221
18.02873       328.4217        16.2583
18.07573       336.5887        16.5235
18.12272       342.4013        16.6050
18.16972       340.2084        16.5905
18.21671       367.1532        17.2482
18.26370       530.7172        20.6534
18.31070       787.0751        25.1670
18.35769       359.4726        16.9975
18.40469       328.7277        16.2999
18.45168       340.3578        16.5750
18.49867       347.6430        16.7747
18.54567       351.2858        16.8152
18.59266      3422.52        52.2592
18.63965       353.0578        16.8523
18.68665       339.4894        16.5710
18.73364       344.1024        16.6131
18.78064       368.0337        17.2111
18.82763       379.6970        17.5306
18.87462      4712.84        61.3407
18.92162       394.7698        17.8761
18.96861       364.4759        17.1380
19.01561       421.5365        18.4061
19.06260       358.8823        17.0263
19.10959       373.4508        17.3468
19.15659      1096.13        29.5862
19.20358       391.2886        17.7181
19.25058       351.7883        16.8084
19.29757       382.1601        17.4982
19.34456       350.1730        16.8232
19.39156       397.5104        17.9145
19.43855      1285.46        32.1647
19.48555       424.1844        18.5342
19.53254       353.7333        16.9135
19.57953       357.6399        17.0340
19.62653       353.5973        16.8781
19.67352       386.6045        17.6990
19.72052      1608.45        35.8344
19.76751       388.8344        17.6822
19.81450       373.3028        17.3351
19.86150       385.6043        17.6540
19.90849       387.5424        17.6751
19.95548       432.1793        18.6277
20.00248     30104.1       156.0790
20.04947       430.3609        18.6137
20.09647       392.9389        17.8001
20.14346       385.3507        17.6373
20.19045       384.2070        17.6421
20.23745       418.9145        18.3961
20.28444       858.7109        26.2385
20.33144       393.8002        17.8631
20.37843       394.3043        17.7974
20.42542       404.9027        18.0003
20.47242       388.3881        17.7334
20.51941       464.7978        19.4041
20.56641       438.3820        18.7958
20.61340       377.0358        17.3851
20.66039       385.0447        17.6482
20.70739       399.0413        17.9293
20.75438       454.3225        19.1171
20.80138      7624.04        78.2549
20.84837       438.0353        18.7942
20.89536       424.8401        18.4729
20.94236       365.0651        17.1103
20.98935       413.4892        18.2522
21.03634       473.3523        19.5545
21.08334       653.5004        22.9909
21.13033       419.1231        18.3917
21.17733       400.2730        17.9389
21.22432       400.9572        17.9761
21.27131       398.5387        17.8999
21.31831      1151.57        30.4378
21.36530       608.3919        22.1164
21.41230       516.1104        20.4322
21.45929       436.7106        18.7726
21.50628       469.4570        19.4751
21.55328       718.1517        23.9882
21.60027       973.1452        27.9923
21.64727       464.6489        19.4373
21.69426       408.8766        18.1734
21.74125       382.9949        17.5858
21.78825       406.7171        18.1010
21.83524       809.3759        25.4964
21.88224       398.0836        17.9508
21.92923       390.2734        17.8061
21.97622       412.5813        18.2392
22.02322       429.9639        18.6391
22.07021       782.2127        25.1254
22.11721       444.5178        18.9686
22.16420       408.4546        18.1031
22.21119       397.0213        17.9283
22.25819       409.5034        18.0813
22.30518       375.2269        17.4106
22.35217       389.8992        17.7242
22.39917       400.3658        17.9624
22.44616       388.4822        17.6955
22.49316       379.6715        17.4475
22.54015       494.2510        19.9615
22.58714      1145.7        30.3746
22.63414       433.2187        18.7077
22.68113       528.2503        20.6786
22.72813       408.6024        18.1452
22.77512       414.2181        18.2825
22.82211       913.7063        27.1008
22.86911       402.0051        18.0228
22.91610       388.6666        17.7475
22.96310       363.4983        17.0761
23.01009       389.6189        17.7714
23.05708      8493.09        82.8188
23.10408       365.6692        17.1987
23.15107       371.2883        17.3034
23.19807       369.5695        17.2192
23.24506       375.5892        17.4170
23.29205      2357.44        43.5789
23.33905       364.0218        17.1196
23.38604       351.7116        16.7617
23.43304       357.9890        17.0576
23.48003       404.9728        18.0308
23.52702      4265.68        58.6685
23.57402       355.8889        16.9706
23.62101       372.1470        17.2765
23.66800       366.7205        17.2215
23.71500       408.5942        18.2110
23.76199      8779.32        84.3092
23.80899       349.7159        16.7885
23.85598       375.6378        17.3942
23.90297       362.4369        17.0725
23.94997       397.2379        17.9313
23.99696      2750.25        47.0630
24.04396       384.9217        17.6511
24.09095       381.1020        17.5255
24.13794       389.4152        17.7065
24.18494       434.9495        18.7030
24.23193       975.4109        27.9792
24.27893       392.4740        17.7540
24.32592       377.1786        17.4404
24.37291       396.7898        17.8600
24.41991       439.8796        18.8056
24.46690       468.8027        19.4643
24.51390       357.9508        17.0310
24.56089       386.7845        17.6224
24.60788       388.3530        17.6976
24.65488       384.5043        17.6398
24.70187       377.6045        17.4628
24.74886       507.9283        20.2283
24.79586       389.7006        17.7365
24.84285       406.1749        18.0687
24.88985      3350        51.9375
24.93684       433.2399        18.6974
24.98383       388.0213        17.6935
25.03083       373.2113        17.2944
25.07782       409.4069        18.1725
25.12482      1404.11        33.5655
25.17181       388.6161        17.6574
25.21880       397.7259        17.9648
25.26580       397.1740        17.9224
25.31279       429.4771        18.5732
25.35979       427.3971        18.5679
25.40678       375.0802        17.3817
25.45377       385.2973        17.6809
25.50077       382.2824        17.5439
25.54776      1736.6        37.3510
25.59476       382.1476        17.6383
25.64175       384.1249        17.6588
25.68874       377.8197        17.4656
25.73574       430.6116        18.6236
25.78273       660.4662        23.0428
25.82973       382.9909        17.5743
25.87672       415.1888        18.3041
25.92371       404.8128        18.0681
25.97071       355.4294        16.9205
26.01770       391.4626        17.7340
26.06469       368.6158        17.2392
26.11169       387.5618        17.6354
26.15868       406.5793        18.0661
26.20568      1000.34        28.3363
26.25267       389.8183        17.6978
26.29966       372.4209        17.3032
26.34666       397.4660        17.9010
26.39365       388.1084        17.7138
26.44065       374.8953        17.3533
26.48764       346.9532        16.7523
26.53463       368.4816        17.2098
26.58163       376.0955        17.4129
26.62862       432.1231        18.7200
26.67562       354.5758        16.9199
26.72261       351.8086        16.8740
26.76960       350.4545        16.8109
26.81660       652.2355        22.8901
26.86359       365.9508        17.1873
26.91059       381.9844        17.5753
26.95758       361.6343        17.1183
27.00457       434.6838        18.7211
27.05157       448.5258        19.0435
27.09856       388.9828        17.7344
27.14556       369.5877        17.2731
27.19255       371.5719        17.3227
27.23954      1040.94        28.9225
27.28654       352.9225        16.8969
27.33353       376.4328        17.5033
27.38052       393.8030        17.7973
27.42752       728.0694        24.1916
27.47451       386.0878        17.6649
27.52151       386.5314        17.6433
27.56850       339.0873        16.5146
27.61549       429.6013        18.5721
27.66249       433.5373        18.7120
27.70948       573.4262        21.4285
27.75648       363.0887        17.0719
27.80347       370.6819        17.2392
27.85046       448.1438        19.0134
27.89746       373.1015        17.3525
27.94445       376.3435        17.3898
27.99145       359.2943        17.0356
28.03844      7944.56        80.1669
28.08543       367.5619        17.1673
28.13243       374.3520        17.3116
28.17942       365.7807        17.1246
28.22642       568.8536        21.4087
28.27341       370.1871        17.2898
28.32040       355.6904        16.8980
28.36740       350.1052        16.8038
28.41439       382.7868        17.5628
28.46138       357.3902        16.9224
28.50838       368.8891        17.2336
28.55537       348.1742        16.8014
28.60237       394.0099        17.8016
28.64936       403.0589        18.0486
28.69635       382.1003        17.6123
28.74335       359.3245        17.0025
28.79034       366.5906        17.2542
28.83734       463.3169        19.3215
28.88433       361.3195        17.0760
28.93132       378.9221        17.5150
28.97832       354.6007        16.9065
29.02531       769.7929        24.8720
29.07231       384.5166        17.6138
29.11930       365.6198        17.1085
29.16629       365.2964        17.1910
29.21329       361.4950        17.0757
29.26028       354.1664        16.9514
29.30728       362.0865        17.1624
29.35427       372.4390        17.3210
29.40126      2783.45        47.4494
29.44826       384.9883        17.6193
29.49525       365.1648        17.1139
29.54225       369.0328        17.2615
29.58924      3088.91        50.0651
29.63623       369.8435        17.2289
29.68323       370.4312        17.2900
29.73022       402.6136        18.0319
29.77721      5431.51        66.2649
29.82421       369.3423        17.2183
29.87120       374.9021        17.3704
29.91820       376.4547        17.4385
29.96519      5692.77        67.9458
30.01218       391.5086        17.7677
30.05918       380.4820        17.5533
30.10617       394.3335        17.8307
30.15317      5697.99        67.9436
30.20016       375.1131        17.3979
30.24715       391.1881        17.7476
30.29415       396.3529        17.8326
30.34114      2517.02        44.9712
30.38814       388.0083        17.7252
30.43513       408.4864        18.1496
30.48212       382.6581        17.6124
30.52912      1109.05        29.8558
30.57611       374.4064        17.3082
30.62311       379.2159        17.5038
30.67010       379.7464        17.5245
30.71709       390.0037        17.7627
30.76409       383.7666        17.5973
30.81108       417.2465        18.3855
30.85808       404.8108        18.0333
30.90507       482.4252        19.6742
30.95206       384.1434        17.5560
30.99906       363.6129        17.0450
31.04605       393.5292        17.8331
31.09304       394.8089        17.8113
31.14004       384.4895        17.5681
31.18703       393.0129        17.8441
31.23403       446.0613        19.0072
31.28102       425.1053        18.5323
31.32801       378.5666        17.4086
31.37501       795.1207        25.3189
31.42200      1462.47        34.2503
31.46900       430.3793        18.7039
31.51599       395.0332        17.9085
31.56298       441.6698        18.9356
31.60998      7155.07        76.1390
31.65697       389.0430        17.7787
31.70397       491.6804        19.8803
31.75096       389.5058        17.7240
31.79795       537.2468        20.8093
31.84495       372.2745        17.3236
31.89194       396.3101        17.8648
31.93894       436.1477        18.7017
31.98593       444.0260        18.9641
32.03292       390.1527        17.6949
32.07992       366.1798        17.1559
32.12691       373.5011        17.3947
32.17391       386.1447        17.6275
32.22090       381.9262        17.5279
32.26789       369.4408        17.1861
32.31489      1068.62        29.3670
32.36188       370.6015        17.3142
32.40887       388.8778        17.6974
32.45587       379.5124        17.5051
32.50286       373.0545        17.2999
32.54986       378.9383        17.4142
32.59685       357.1715        16.9887
32.64384       539.4492        20.8731
32.69084       432.8204        18.6602
32.73783       379.3235        17.4385
32.78483       381.7897        17.5926
32.83182      1651.73        36.4727
32.87881       368.1512        17.2102
32.92581      1644        36.5377
32.97280       393.7145        17.7955
33.01980       479.8979        19.6945
33.06679       379.8326        17.4640
33.11378       377.2420        17.4659
33.16078       438.0214        18.7824
33.20777       401.9175        17.9726
33.25477       361.9169        17.0985
33.30176       380.3224        17.4828
33.34875      2152.6        41.6955
33.39575       367.9913        17.2335
33.44274       390.8165        17.7730
33.48973       380.4593        17.5534
33.53673       389.9667        17.7180
33.58372       359.9607        17.0663
33.63072       403.0365        18.0259
33.67771      1065.01        29.2643
33.72470       377.9559        17.4504
33.77170       347.0679        16.7396
33.81869       641.1060        22.6793
33.86569       399.8525        17.9383
33.91268       365.5948        17.1470
33.95967       373.7647        17.3574
34.00667       435.0924        18.7526
34.05366       400.4219        17.9887
34.10066       369.9356        17.2754
34.14765       371.5469        17.2778
34.19464       970.2830        27.9298
34.24164       341.0555        16.5799
34.28863       372.4347        17.2895
34.33563       400.5493        17.9454
34.38262       374.1519        17.4209
34.42961       357.3131        16.9395
34.47661       366.9119        17.2767
34.52360      1635.58        36.2827
34.57060       361.9307        17.1721
34.61759       352.3826        16.8736
34.66458       421.0718        18.4283
34.71158       375.9158        17.4268
34.75857       389.0427        17.7139
34.80556       355.9101        16.9886
34.85256       335.2873        16.4569
34.89955       356.5867        17.0328
34.94655       356.3306        16.9642
34.99354       430.2110        18.6578
35.04053       370.0687        17.2352
35.08753       348.0886        16.7626
35.13452       336.3966        16.4290
35.18152       390.6173        17.7218
35.22851       346.3058        16.7185
35.27550       472.7373        19.5442
35.32250       420.3572        18.4688
35.36949       355.7208        16.9354
35.41649       341.6401        16.6130
35.46348       370.5767        17.3126
35.51047       425.3025        18.4397
35.55747       389.1924        17.7168
35.60446       362.2687        17.1097
35.65146      1693.82        36.9121
35.69845       346.0031        16.6961
35.74544       346.1250        16.7375
35.79244       341.9945        16.5820
35.83943       373.1978        17.3276
35.88643       341.8384        16.6011
35.93342       352.1432        16.8513
35.98041      1468.45        34.5092
36.02741       358.8126        17.0841
36.07440       345.6015        16.6394
36.12139       467.0798        19.4471
36.16839       379.0909        17.5075
36.21538       354.2133        16.9744
36.26238       367.5265        17.2433
36.30937       378.9755        17.5385
36.35636       371.3332        17.3474
36.40336       352.7175        16.8495
36.45035       359.1936        16.9484
36.49735       316.5852        15.9394
36.54434       353.9560        16.8567
36.59133       420.2286        18.4391
36.63833       361.9551        17.0695
36.68532       352.6930        16.8013
36.73232       358.1623        16.9559
36.77931       390.4300        17.7350
36.82630       325.1082        16.1491
36.87330       341.2898        16.5871
36.92029      1291.81        32.3055
36.96729       334.9748        16.4150
37.01428       356.5429        16.9967
37.06127       489.6662        19.8062
37.10827       351.7432        16.8387
37.15526       347.8981        16.7861
37.20225       370.9712        17.2840
37.24925       354.3990        16.8910
37.29624       370.2143        17.2646
37.34324       339.6904        16.5285
37.39023       343.0289        16.6416
37.43722       361.3620        17.0931
37.48422       675.0015        23.3181
37.53121       674.5925        23.3367
37.57821       339.8978        16.5286
37.62520       355.3478        16.9184
37.67219       361.2149        17.0537
37.71919       333.0832        16.3569
37.76618       355.2578        16.9318
37.81318       323.7139        16.1057
37.86017       382.8198        17.5749
37.90716       335.8213        16.4219
37.95416       379.7023        17.5264
38.00115      1040.82        30.1442
38.04815       361.9337        17.8028
38.09514       338.0582        17.2525
38.14213       811.4035        26.5957
38.18913       358.2153        17.6590
38.23612       381.3678        18.2486
38.28312       566.7872        22.2796
38.33011       370.2457        18.0363
38.37710       376.0039        18.1909
38.42410       396.5362        18.6345
38.47109       405.4715        18.7996
38.51808       368.3205        18.0065
38.56508       391.6361        18.5370
38.61207       370.2549        18.0296
38.65907       358.8403        17.7207
38.70606       342.0813        17.3105
38.75305      1066.12        30.4368
38.80005       340.3578        17.2568
38.84704       339.4734        17.3027
38.89404       430.4824        19.4571
38.94103       334.7569        17.0618
38.98802       333.8736        17.0848
39.03502       506.5996        21.0617
39.08201       343.3508        17.2636
39.12901       356.9682        17.6924
39.17600       373.4776        18.1416
39.22299       388.2011        18.4171
39.26999       338.1891        17.2025
39.31698       389.7475        18.4617
39.36398       369.9111        17.9627
39.41097       319.7426        16.7824
39.45796       320.8536        16.6874
39.50496       352.3646        17.6041
39.55195       321.5798        16.8543
39.59895       534.0603        21.6584
39.64594       348.2759        17.4470
39.69293       361.8730        17.7344
39.73993       341.8654        17.2913
39.78692       346.0868        17.4113
39.83391       344.4434        17.3194
39.88091       349.1730        17.4682
39.92790      1429.79        35.4297
39.97490       341.4065        17.2696
40.02189       324.6916        17.6173
40.06888       765.8124        27.1206
40.11588       342.8797        18.0616
40.16287       336.5675        17.9012
40.20987       900.2623        29.2550
40.25686       353.6528        18.3731
40.30385       349.0627        18.2047
40.35085       438.0718        20.3992
40.39784       337.8488        17.9387
40.44484       353.2260        18.4226
40.49183       394.4404        19.4443
40.53882       343.7483        18.1842
40.58582       326.0274        17.6177
40.63281       425.8462        20.1712
40.67981       302.0873        17.0278
40.72680       314.9762        17.3980
40.77379       326.6337        17.5870
40.82079       326.3991        17.6223
40.86778       341.9491        18.1141
40.91477       302.4709        16.9284
40.96177       330.7727        17.7077
41.00876       333.5245        17.8708
41.05576       322.1996        17.5248
41.10275       311.4824        17.2120
41.14974       338.4471        17.8978
41.19674       326.1953        17.7208
41.24373       351.2208        18.3376
41.29073       329.1882        17.6999
41.33772       366.6068        18.6912
41.38471       377.0381        18.9907
41.43171       345.2317        18.1764
41.47870       381.2700        19.0470
41.52570       364.0712        18.6609
41.57269       333.6984        17.9248
41.61968       617.4134        24.3816
41.66668       360.4196        18.5688
41.71367       350.1651        18.3277
41.76067       347.8867        18.1999
41.80766       354.5585        18.4394
41.85465       344.2944        18.1590
41.90165       378.1712        19.0301
41.94864       339.9915        17.9920
41.99564       310.8089        17.2423
42.04263       326.0541        18.6420
42.08962       333.2407        18.7889
42.13662       331.5407        18.7221
42.18361       325.4155        18.5737
42.23060       336.4333        18.8543
42.27760       332.0590        18.7473
42.32459       350.9971        19.3499
42.37159       329.1031        18.6085
42.41858       321.7186        18.4042
42.46557       372.7909        19.9944
42.51257       335.5056        18.8741
42.55956       325.9388        18.6409
42.60656       496.3440        22.8137
42.65355       334.5080        18.7638
42.70054       311.4886        18.1576
42.74754       805.9243        29.1979
42.79453       330.7110        18.6713
42.84153       329.8540        18.6310
42.88852       653.7142        26.4376
42.93551       316.7848        18.3783
42.98251       348.4852        19.2086
43.02950      1195.79        35.5862
43.07650       333.3735        18.7754
43.12349       337.2090        18.9416
43.17048       513.7992        23.3253
43.21748       326.4973        18.5966
43.26447       340.7506        19.0023
43.31147       457.8424        22.1012
43.35846       333.1833        18.8328
43.40545       310.3620        18.1937
43.45245       308.8950        18.0337
43.49944       329.0175        18.7658
43.54643       356.0197        19.4520
43.59343       336.2580        18.9339
43.64042       286.7545        17.3739
43.68742       323.3611        18.4940
43.73441       341.9541        19.0492
43.78140       334.7296        18.8371
43.82840       345.0056        19.1620
43.87539       318.8198        18.4335
43.92239       307.5682        17.9701
43.96938       641.2336        26.1193
44.01637       342.9650        19.9653
44.06337       352.6392        20.2706
44.11036       439.6322        22.5622
44.15736       337.1629        19.8743
44.20435       328.4664        19.5424
44.25134       338.2363        19.8698
44.29834       306.2531        18.9242
44.34533       329.1216        19.5184
44.39233       414.9381        21.9976
44.43932       339.1454        19.8902
44.48631       325.6653        19.4524
44.53331       306.5631        18.9011
44.58030       363.9552        20.5734
44.62729       331.9489        19.6136
44.67429       336.7621        19.8097
44.72128       338.0596        19.8430
44.76828       500.6160        24.1202
44.81527       325.3042        19.5727
44.86226       332.0563        19.7103
44.90926       572.1993        25.7899
44.95625       306.5741        18.9381
45.00325       343.9794        20.0524
45.05024       815.0948        30.7878
45.09723       321.1967        19.3102
45.14423       301.2706        18.7076
45.19122       331.0414        19.5669
45.23822       306.4196        18.8559
45.28521       308.3130        19.0387
45.33220       303.3627        18.8214
45.37920       321.3537        19.3652
45.42619       441.2937        22.6579
45.47319       337.9694        19.8428
45.52018       311.2075        19.0255
45.56717       283.7946        18.2197
45.61417       318.4206        19.1787
45.66116       317.6393        19.2793
45.70816       540.2713        25.1101
45.75515       299.4391        18.6673
45.80214       300.5381        18.6727
45.84914       307.3732        18.9813
45.89613       295.2895        18.4739
45.94312       372.5585        20.7994
45.99012       305.8527        18.8756
46.03711       311.4144        20.1437
46.08411       484.5460        24.9656
46.13110       467.3561        24.6532
46.17809       325.3877        20.6039
46.22509       735.2312        30.9114
46.27208       296.7329        19.6653
46.31908       292.1456        19.5279
46.36607       305.5745        19.9192
46.41306       297.8234        19.7222
46.46006       286.5069        19.3146
46.50705       304.1050        19.9191
46.55405       295.2390        19.6181
46.60104       267.4416        18.7178
46.64803       281.8632        19.1730
46.69503       289.0515        19.4134
46.74202       491.1097        25.2292
46.78902       256.1383        18.1779
46.83601       324.8072        20.5222
46.88300       296.8218        19.6796
46.93000       290.6312        19.4493
46.97699       325.5435        20.4833
47.02399       277.2400        18.9555
47.07098       293.6019        19.5021
47.11797       881.0332        33.8667
47.16497       284.5872        19.2547
47.21196       304.0166        19.8479
47.25895       295.1541        19.6444
47.30595       273.7935        18.8500
47.35294       278.0453        19.0735
47.39994       309.4813        20.1018
47.44693       279.3166        19.0115
47.49392       551.6845        26.7940
47.54092       251.9125        18.1469
47.58791       297.2149        19.7255
47.63491       281.5954        19.1535
47.68190       277.2574        19.0265
47.72889       259.9967        18.2655
47.77589       299.3940        19.8117
47.82288       290.2452        19.4705
47.86988       399.1465        22.7914
47.91687       358.8010        21.6139
47.96386       263.2460        18.4632
48.01086       581.9365        29.5965
48.05785       294.0208        21.0532
48.10485       269.1557        20.2143
48.15184       281.3317        20.6724
48.19883       286.3986        20.8689
48.24583       373.0915        23.7929
48.29282       267.5767        20.2274
48.33981       262.8668        20.0063
48.38681       266.5881        20.0630
48.43380       254.5385        19.6748
48.48080       282.5114        20.6567
48.52779       282.9911        20.7458
48.57478       270.5171        20.2116
48.62178       318.4914        21.9770
48.66877       279.6509        20.6136
48.71577       274.9760        20.3406
48.76276       347.3363        22.7858
48.80975       258.8156        19.7163
48.85675       260.4467        19.8667
48.90374       279.1994        20.5653
48.95074       238.5616        19.0392
48.99773       351.9270        22.9947
49.04472       277.0964        20.5016
49.09172       251.4569        19.4952
49.13871       287.2012        20.8874
49.18571       239.1968        19.0790
49.23270       265.1342        19.9884
49.27969       247.2130        19.2858
49.32669       284.7065        20.7274
49.37368       291.0336        21.0868
49.42068       262.7632        20.0772
49.46767       265.2793        20.0648
49.51466       273.5301        20.3437
49.56166       268.7563        20.1923
49.60865       260.0182        19.7614
49.65564       250.8018        19.4427
49.70264       276.8585        20.5477
49.74963       440.5875        25.8191
49.79663       258.1784        19.7531
49.84362       275.3924        20.4881
49.89061       236.9323        18.8846
49.93761       285.5924        20.8301
49.98460       397.8256        24.5359
50.03160       225.5489        20.4645
50.07859       261.9586        21.8926
50.12558       256.2867        21.8326
50.17258       262.9135        22.1029
50.21957       293.2159        23.3722
50.26657       276.1598        22.7089
50.31356       223.0787        20.3015
50.36055       279.4671        22.7382
50.40755       242.1107        21.1199
50.45454       299.9080        23.6312
50.50154       271.1891        22.3799
50.54853       252.1386        21.6506
50.59552       237.8699        21.0029
50.64252       253.6308        21.6904
50.68951       246.1923        21.3846
50.73651       269.3903        22.3439
50.78350       238.4034        21.0420
50.83049       431.5486        28.2472
50.87749       287.1504        23.1723
50.92448       265.6558        22.2412
50.97147       320.5483        24.4157
51.01847       270.5922        22.3517
51.06546       362.7699        25.9934
51.11246       261.2893        22.0362
51.15945       281.0172        22.8709
51.20644       413.6422        27.6490
51.25344       254.6694        21.7026
51.30043       245.4567        21.2730
51.34743       261.1933        21.9227
51.39442       251.9355        21.5553
51.44141       342.8373        25.2661
51.48841       222.1768        20.2290
51.53540       268.8282        22.2409
51.58240       263.9803        22.0565
51.62939       227.0117        20.5009
51.67638       342.2134        25.1403
51.72338       236.6162        20.8987
51.77037       263.7112        22.1145
51.81737       235.9282        20.9072
51.86436       244.9185        21.2519
51.91135       532.2142        31.2753
51.95835       247.3519        21.3726
52.00534       279.0653        25.1064
52.05234       241.5009        23.5163
52.09933       220.5685        22.2838
52.14632       486.6961        33.0824
52.19332       241.2816        23.4120
52.24031       254.9250        24.1135
52.28730       261.4358        24.3183
52.33430       250.2786        23.7396
52.38129       346.3730        28.0493
52.42829       275.0925        25.1234
52.47528       225.7793        22.8337
52.52227       194.6666        20.8165
52.56927       236.1840        23.1809
52.61626       453.4693        32.0679
52.66326       262.3959        24.3705
52.71025       245.0486        23.4862
52.75724       256.2978        24.0938
52.80424       205.4089        21.6492
52.85123       493.0476        33.5161
52.89823       226.3013        22.6675
52.94522       205.6686        21.4337
52.99221       260.8632        24.3095
53.03921       283.9381        25.4130
53.08620       262.5179        24.3370
53.13320       213.5612        21.9434
53.18019       278.9272        25.1452
53.22718       208.7153        21.7854
53.27418       229.1060        22.8064
53.32117       646.0776        38.2025
53.36816       224.6625        22.6348
53.41516       222.3844        22.4387
53.46215       247.9696        23.7733
53.50915       207.0514        21.5790
53.55614       312.0558        26.6145
53.60313       216.3726        22.1414
53.65013       211.5820        21.6720
53.69712       231.8996        22.8707
53.74412       249.0018        23.5437
53.79111       331.2085        27.3484
53.83810       229.8328        22.8148
53.88510       299.5361        26.0498
53.93209       202.8965        21.3594
53.97909       242.0828        23.4671
54.02608       376.3254        34.3328
54.07307       251.7643        28.1377
54.12007       258.0493        28.3596
54.16706       239.1768        27.3036
54.21406       253.8714        28.1115
54.26105       250.3124        27.9631
54.30804       260.3853        28.4472
54.35504       246.1891        27.9066
54.40203       246.0526        27.7798
54.44903       203.0762        25.1620
54.49602       241.9378        27.4992
54.54301       229.2666        26.6123
54.59001       445.2232        37.3535
54.63700       235.7769        27.2444
54.68399       229.6250        26.9268
54.73099       225.7381        26.5517
54.77798       202.7697        25.1762
54.82498       206.3755        25.4201
54.87197       255.3971        28.2488
54.91896       233.2840        27.0301
54.96596       249.2005        27.8892
55.01295       223.6302        26.4327
55.05995       229.5855        26.6810
55.10694       259.9795        28.4535
55.15393       244.5000        27.6659
55.20093       206.5362        25.2665
55.24792       219.7037        26.1446
55.29492       212.9029        25.7320
55.34191       241.7384        27.2437
55.38890       426.9795        36.6254
55.43590       224.5781        26.5341
55.48289       241.3738        27.5091
55.52989       229.8366        26.8785
55.57688       209.5904        25.6520
55.62387       324.3875        31.7256
55.67087       329.6139        32.0951
55.71786       271.6111        28.9230
55.76486       213.6174        25.8781
55.81185       213.8599        25.6077
55.85884       176.6908        23.5547
55.90584       230.1324        26.7965
55.95283       205.7240        25.3517
55.99982       255.7989        34.1054
56.04682       235.4865        32.7693
56.09381       197.5207        30.0298
56.14081       199.0177        30.0545
56.18780       207.0472        30.6868
56.23479       186.5334        28.9839
56.28179       259.6846        34.3464
56.32878       205.9031        30.5995
56.37578       173.3829        28.1396
56.42277       185.7648        29.1038
56.46976       237.4998        32.9227
56.51676       281.9410        35.8034
56.56375       196.8271        29.8350
56.61075       226.8068        32.0169
56.65774       202.0860        30.3079
56.70473       217.7802        31.3803
56.75173       245.0141        33.4242
56.79872       188.7713        29.2657
56.84572       252.5895        33.9115
56.89271       180.5863        28.5863
56.93970       204.6888        30.4124
56.98670       202.8434        30.4095
57.03369       215.0966        31.2810
57.08068       192.9382        29.5355
57.12768       203.5174        30.4672
57.17467       184.9570        28.9436
57.22167       246.7657        33.3464
57.26866       210.3272        30.9392
57.31565       205.7689        30.5886
57.36265       215.0376        31.3037
57.40964       356.2461        40.2782
57.45664       178.8548        28.4911
57.50363       213.9393        31.1677
57.55062       220.0837        31.6381
57.59762       215.2769        31.3503
57.64461       245.3426        33.3865
57.69161       190.4171        29.4608
57.73860       207.1222        30.7051
57.78559       198.9012        30.0797
57.83259       210.9688        30.8968
57.87958       178.6906        28.4986
57.92658       244.8275        33.3821
57.97357       191.5184        29.4683
58.02056       199.3999        42.8390
58.06756       263.1587        49.2524
58.11455       166.1500        39.1619
58.16155       244.2400        47.4127
58.20854       161.1296        38.5675
58.25553       194.4268        42.2728
58.30253       172.6828        39.9328
58.34952       175.7210        40.2289
58.39651       272.7770        50.0835
58.44351       247.8007        47.8402
58.49050       193.9360        42.3203
58.53750       175.4918        40.2597
58.58449       212.5504        44.3315
58.63148       197.4437        42.5679
58.67848       215.8550        44.6272
58.72547       217.3353        44.7280
58.77247       139.5913        35.7721
58.81946       165.1780        38.9320
58.86645       160.7180        38.5170
58.91345       205.9969        43.4739
58.96044       172.0237        38.7536
59.00744       130.9265        34.6377
59.05443       378.4590        59.0470
59.10142       184.1533        41.1558
59.14842       167.2762        39.2559
59.19541       217.9784        44.8129
59.24241       206.8715        43.4102
59.28940       215.5386        44.4880
59.33639       205.7086        43.4586
59.38339       311.6849        53.6060
59.43038       147.6102        36.9025
59.47738       188.7112        41.6817
59.52437       139.9991        35.9436
59.57136       129.2694        34.4804
59.61836       151.7413        37.4069
59.66535       128.4048        34.3595
59.71234       244.7205        47.3834
59.75934       224.0750        45.3284
59.80633       179.9410        40.6025
59.85333       213.0361        44.1812
59.90032       197.9754        42.7281
59.94731       177.9524        40.5095
59.98931       205.5382        43.0983