File: Samples/PowderCalibrations/Al2O3_676a.xy
XYDATA
! Title: 11-BM data for Al2O3 SRM 676a
INTER 1.0 1.0 2 0.0010
TEMP 295.0
! Fullprof format INSTRM=10 (x, y, sigma)
! File no. =               4714
! No. steps =             34500
! Scan time =             MAY 31, 2014 22:53
! Sample name =     	  NIST SRM 676a (Al2O3)
! Composition =           Aluminium Oxide (Al2O3)
! Sample Comment =        0.8 mm dia Kapton
! Temp (K) =              295.6
! 2theta step (deg) =     0.001
! Time per step (sec) =   0.1
! 100/Ring Current[0] =   0.983
! Monitor I0 [0] =        92715.5
! Monitor I1 [0] =        75723.2
! Gonio._radius [mm] =    1000.0
! Calibration file =      11bmb_4699_2thcorr.calib
! 2Theta correction subtracted
! Normalization factor  = 8.3433
! Calibrated wavelength = 0.413671
!
! 2theta, intensity, sigma(intensity)
2.000000 151.392 16.3038
2.031995 165.5 16.9502
2.063990 137.813 15.5803
2.095985 123.531 14.6615
2.127980 154.03 16.4628
2.159975 136.788 15.524
2.191970 139.223 15.7132
2.223965 161.77 16.8369
2.255960 93.4519 12.7174
2.287955 121.966 14.5536
2.319950 128.898 15.0339
2.351945 127.271 15.023
2.383940 116.895 14.3475
2.415935 117.104 14.3355
2.447931 111.973 13.9614
2.479926 100.658 13.3279
2.511921 116.753 14.2961
2.543916 110.955 13.9526
2.575911 110.005 13.8656
2.607906 131.598 15.2435
2.639901 130.522 15.1283
2.671896 112.858 14.1136
2.703891 116.897 14.379
2.735886 115.853 14.2692
2.767881 99.3329 13.2078
2.799876 96.2777 12.9724
2.831871 88.7777 12.5623
2.863866 101.197 13.3536
2.895861 100.372 13.2455
2.927856 93.7442 12.8829
2.959851 104.07 13.4511
2.991846 108.836 13.825
3.023841 106.808 13.7406
3.055836 114.337 14.1854
3.087831 95.8196 12.9842
3.119826 101.824 13.2362
3.151821 102.436 13.2666
3.183816 109.322 13.8249
3.215811 95.8301 12.88
3.247806 97.8642 13.1206
3.279801 87.995 12.3966
3.311796 102.664 13.3109
3.343792 90.6527 12.612
3.375787 105.711 13.6013
3.407782 84.829 12.2631
3.439777 108.533 13.7805
3.471772 99.4394 13.2471
3.503767 110.575 12.5637
3.535762 98.1028 11.8072
3.567757 98.4317 11.8057
3.599752 107.665 12.4696
3.631747 104.496 12.2201
3.663742 107.369 12.2939
3.695737 82.3074 10.7391
3.727732 89.197 11.2193
3.759727 100.04 11.849
3.791722 105.754 12.3232
3.823717 113.902 12.7575
3.855712 105.786 12.3048
3.887707 91.929 11.456
3.919702 101.743 12.1059
3.951697 115.44 12.7373
3.983692 75.0855 10.2451
4.015687 89.4594 11.3277
4.047682 110.146 12.4595
4.079677 122.381 13.1133
4.111672 103.101 12.0975
4.143667 111.472 12.6102
4.175662 124.691 13.2816
4.207658 107.204 12.4175
4.239653 104.032 12.184
4.271648 123.554 13.2638
4.303643 120.179 13.0835
4.335638 116.587 12.8695
4.367633 125.477 13.3968
4.399628 120.818 13.1653
4.431623 122.427 13.1905
4.463618 123.048 13.3054
4.495613 116.773 12.9737
4.527608 114.01 12.726
4.559603 131.006 13.6566
4.591598 129.97 13.509
4.623593 113.445 12.7387
4.655588 127.81 13.4231
4.687583 119.346 13.1046
4.719578 116.052 12.7665
4.751573 141.265 14.2028
4.783568 134.324 13.7851
4.815563 141.998 14.2692
4.847558 135.732 13.8696
4.879553 120.042 13.1113
4.911548 140.164 14.1509
4.943543 156.018 14.9663
4.975538 136.17 13.9431
5.007533 140.118 13.993
5.039528 142.181 14.145
5.071523 141.853 14.1706
5.103519 126.467 13.3733
5.135514 139.436 14.0436
5.167509 112.533 12.6368
5.199504 136.53 13.9462
5.231499 143.376 14.3976
5.263494 121.157 13.1351
5.295489 116.795 12.7297
5.327484 131.175 13.6616
5.359479 134.858 13.8076
5.391474 132.792 13.7983
5.423469 117.186 13.0179
5.455464 125.045 13.3279
5.487459 122.902 13.2636
5.519454 117.115 11.7673
5.551449 119.134 11.9246
5.583444 109.862 11.4071
5.615439 133.275 12.6444
5.647434 118.72 11.8949
5.679429 118.124 11.8944
5.711424 111.275 11.4811
5.743419 110.208 11.4363
5.775414 84.1024 9.920495
5.807409 102.28 11.0127
5.839404 113.924 11.6333
5.871399 92.6197 10.4467
5.903394 114.198 11.6312
5.935389 119.356 12.0171
5.967384 95.3262 10.6529
5.999380 104.395 11.2175
6.031375 105.66 11.2333
6.063370 94.3906 10.592
6.095365 89.2799 10.2913
6.127360 90.5967 10.3025
6.159355 110.104 11.4291
6.191350 94.1838 10.4955
6.223345 91.8921 10.4755
6.255340 85.5636 10.1666
6.287335 96.5197 10.7965
6.319330 84.8079 10.0222
6.351325 91.346 10.4473
6.383320 80.6566 9.676938
6.415315 78.9569 9.679262
6.447310 73.244 9.274269
6.479305 92.9063 10.5673
6.511300 102.406 11.0067
6.543295 84.3143 10.0111
6.575290 100.419 10.8833
6.607285 92.9296 10.5145
6.639280 99.2966 10.8963
6.671275 114.609 11.6979
6.703270 104.027 11.22
6.735265 118.651 11.8447
6.767260 205.13 15.558
6.799255 1200.18 37.8431
6.831250 833.808 31.4664
6.863246 217.594 16.1897
6.895241 109.08 11.3787
6.927236 99.2917 10.7506
6.959231 85.9244 10.0293
6.991226 82.6876 9.808051
7.023221 79.8996 9.807077
7.055216 85.1272 10.0983
7.087211 72.3477 9.219828
7.119206 83.3762 9.897988
7.151201 85.9609 10.0807
7.183196 82.3751 9.881412
7.215191 76.7681 9.432105
7.247186 88.0202 10.1683
7.279181 72.5095 9.205380
7.311176 89.0856 10.2343
7.343171 74.1488 9.412210
7.375166 60.9914 8.507766
7.407161 98.6774 10.8302
7.439156 62.8469 8.641184
7.471151 76.9769 9.610924
7.503146 66.0653 8.302224
7.535141 72.2789 8.640050
7.567136 73.4086 8.730729
7.599131 84.13 9.328817
7.631126 77.4654 9.091330
7.663121 64.1192 8.226577
7.695116 68.5451 8.474606
7.727111 67.1609 8.435675
7.759107 63.6882 8.081740
7.791102 60.219 7.924431
7.823097 63.6383 8.158927
7.855092 57.1975 7.691418
7.887087 62.9236 8.087207
7.919082 67.5426 8.334535
7.951077 60.66 7.915400
7.983072 48.1937 7.060914
8.015067 62.5097 8.070791
8.047062 61.3404 7.924096
8.079057 58.779 7.870976
8.111052 51.9762 7.372292
8.143047 69.915 8.548115
8.175042 64.4367 8.193425
8.207037 40.0416 6.526701
8.239032 58.0976 7.751265
8.271027 57.4472 7.748366
8.303022 58.162 7.737569
8.335017 49.7823 7.124470
8.367012 53.1239 7.421725
8.399007 53.734 7.365578
8.431002 50.5062 7.241798
8.462997 56.7091 7.730118
8.494992 54.385 7.540687
8.526987 46.706 6.970201
8.558982 56.6209 7.675318
8.590977 64.9724 8.273743
8.622973 58.7077 7.762665
8.654968 58.2749 7.806676
8.686963 51.7914 7.311280
8.718958 45.2517 6.825863
8.750953 53.7194 7.451384
8.782948 40.7194 6.508077
8.814943 37.744 6.295780
8.846938 59.7468 7.982993
8.878933 54.1466 7.425821
8.910928 59.75 7.941665
8.942923 53.7547 7.447576
8.974918 48.6475 7.082142
9.006913 56.324 7.660885
9.038908 46.5465 6.935165
9.070903 60.7516 8.027159
9.102898 58.9473 7.785089
9.134893 60.4259 7.886757
9.166888 62.6874 8.085851
9.198883 84.755 9.454832
9.230878 152.479 12.6041
9.262873 413.305 20.8926
9.294868 7714.7 90.0462
9.326863 658.733 26.4525
9.358858 202.76 14.6157
9.390853 107.852 10.6264
9.422848 77.5683 8.997903
9.454843 65.3898 8.316176
9.486838 68.8259 8.535760
9.518834 52.6884 6.793686
9.550829 53.3335 6.959333
9.582824 53.1208 6.987507
9.614819 46.9094 6.465872
9.646814 53.0466 7.016078
9.678809 50.4906 6.700359
9.710804 48.1218 6.626286
9.742799 45.0379 6.322884
9.774794 67.1032 7.745152
9.806789 63.3745 7.565997
9.838784 53.5781 6.961701
9.870779 76.7082 8.336799
9.902774 100.754 9.585461
9.934769 212.761 13.8435
9.966764 3292.43 54.9479
9.998759 312.64 16.7968
10.0308 120.587 10.5043
10.0627 78.2789 8.396501
10.0947 62.899 7.516881
10.1267 53.8658 7.051232
10.1587 58.4783 7.327312
10.1907 53.5793 6.938261
10.2227 58.9153 7.279576
10.2547 58.2207 7.241662
10.2867 46.2785 6.477971
10.3187 51.046 6.767868
10.3507 46.9459 6.497083
10.3827 56.4599 7.149587
10.4147 57.6867 7.292221
10.4467 55.8638 7.091627
10.4787 46.9085 6.582709
10.5107 42.7193 6.224032
10.5427 41.355 6.116072
10.5747 38.2975 5.903213
10.6067 57.9974 7.271466
10.6387 44.3746 6.316526
10.6707 49.9122 6.799193
10.7027 53.2662 6.971280
10.7346 47.3929 6.553248
10.7666 52.5783 6.801456
10.7986 44.7378 6.271562
10.8306 51.6052 6.813987
10.8626 44.8153 6.363277
10.8946 42.8956 6.286155
10.9266 50.3525 6.658262
10.9586 168.55 12.4037
10.9906 53.3731 7.044592
11.0226 57.0046 7.240704
11.0546 44.9134 6.409570
11.0866 49.0968 6.585256
11.1186 48.1954 6.664723
11.1506 54.7195 6.925625
11.1826 54.6675 7.082725
11.2146 70.5273 7.900698
11.2466 92.1635 9.109266
11.2786 123.946 10.6587
11.3106 207.94 13.7288
11.3426 470.664 20.6435
11.3745 5432.54 70.45
11.4065 1073.82 31.2921
11.4385 277.422 15.8961
11.4705 120.087 10.4657
11.5025 103.922 9.176193
11.5345 72.6187 7.706111
11.5665 66.0844 7.342965
11.5985 60.7927 7.044985
11.6305 59.7867 7.024208
11.6625 50.5207 6.418254
11.6945 60.3791 7.024626
11.7265 48.4756 6.275434
11.7585 52.2273 6.548148
11.7905 52.6587 6.536665
11.8225 57.4608 6.909821
11.8545 47.3604 6.213486
11.8865 46.2509 6.156783
11.9185 57.7667 6.857916
11.9505 55.8476 6.805013
11.9825 43.6167 5.847303
12.0144 45.7374 6.092707
12.0464 68.8657 7.504310
12.0784 108.315 9.422625
12.1104 67.4038 7.435366
12.1424 41.1444 5.772171
12.1744 57.1368 6.751671
12.2064 51.5956 6.512550
12.2384 57.6654 6.936371
12.2704 36.913 5.506417
12.3024 53.4474 6.663408
12.3344 52.5724 6.557308
12.3664 48.2959 6.319187
12.3984 46.5981 6.198269
12.4304 49.7523 6.396798
12.4624 49.0393 6.369962
12.4944 57.0537 6.810414
12.5264 47.0913 6.161685
12.5584 47.841 6.215731
12.5904 41.4978 5.915857
12.6224 46.4294 6.207411
12.6543 42.4883 5.738294
12.6863 46.3979 6.132098
12.7183 44.3813 6.009088
12.7503 41.6837 5.834784
12.7823 44.9571 6.096911
12.8143 47.7925 6.296421
12.8463 46.3657 6.122661
12.8783 43.8035 6.019745
12.9103 45.1374 6.096177
12.9423 38.0095 5.546552
12.9743 32.278 5.098940
13.0063 43.0032 5.934920
13.0383 43.855 6.065129
13.0703 48.7101 6.228702
13.1023 51.0244 6.419196
13.1343 48.9849 6.360824
13.1663 41.3727 5.833735
13.1983 41.14 5.794804
13.2303 36.8698 5.527255
13.2623 45.5988 6.079503
13.2942 58.1085 6.880476
13.3262 50.9554 6.494106
13.3582 51.0975 6.380984
13.3902 46.4369 6.128963
13.4222 47.0539 6.183841
13.4542 50.4741 6.500299
13.4862 53.7027 6.641046
13.5182 63.8077 6.879545
13.5502 89.4678 8.162274
13.5822 145.254 10.3932
13.6142 287.353 14.6912
13.6462 4130.46 55.6632
13.6782 487.845 19.1691
13.7102 161.22 10.9857
13.7422 97.1922 8.486715
13.7742 66.9283 7.058838
13.8062 61.6293 6.807588
13.8382 56.3741 6.447309
13.8702 47.7791 5.959771
13.9022 45.9356 5.836627
13.9341 47.0752 5.873195
13.9661 44.6878 5.746285
13.9981 46.3232 5.844479
14.0301 44.565 5.779528
14.0621 45.0569 5.811032
14.0941 46.702 5.898011
14.1261 41.5033 5.529515
14.1581 44.1467 5.659074
14.1901 50.6737 6.126805
14.2221 53.2227 6.222856
14.2541 45.9323 5.783945
14.2861 49.1932 6.034803
14.3181 47.2994 5.904575
14.3501 38.2852 5.345137
14.3821 42.9223 5.633198
14.4141 41.7064 5.497631
14.4461 48.7356 6.012442
14.4781 43.9689 5.656898
14.5101 45.9831 5.870328
14.5421 49.64 6.085345
14.574 51.2161 6.192514
14.606 46.1911 5.883658
14.638 64.0822 6.908628
14.67 64.6792 6.918787
14.702 94.6093 8.315718
14.734 120.681 9.466316
14.766 213.569 12.586
14.798 508.468 19.4776
14.83 4566.15 58.4917
14.862 1323.2 31.489
14.894 325.836 15.6242
14.926 154.885 10.7234
14.958 93.6987 8.361018
14.99 86.2572 8.009776
15.022 54.0555 6.304584
15.054 61.0319 6.714232
15.086 49.8894 6.027266
15.118 47.8006 5.951464
15.15 37.7896 5.279574
15.182 45.1383 5.805745
15.214 57.0267 6.480121
15.2459 48.006 5.870073
15.2779 50.6893 6.156922
15.3099 58.0767 6.510628
15.3419 65.7261 7.015033
15.3739 345.819 16.0839
15.4059 62.4121 6.772777
15.4379 50.4988 6.147504
15.4699 51.2592 6.119584
15.5019 56.9904 6.222350
15.5339 45.7571 5.496560
15.5659 49.0332 5.826483
15.5979 49.7872 5.794493
15.6299 55.2314 6.164785
15.6619 76.9323 7.204650
15.6939 692.985 21.7859
15.7259 463.933 17.8198
15.7579 144.116 9.889500
15.7899 72.2535 6.967627
15.8219 53.6475 5.984115
15.8539 43.9664 5.426112
15.8858 41.1333 5.276040
15.9178 48.4243 5.747989
15.9498 49.4023 5.873608
15.9818 49.3768 5.788222
16.0138 43.7116 5.384541
16.0458 48.964 5.735893
16.0778 46.2607 5.553929
16.1098 45.0219 5.551320
16.1418 43.1266 5.391103
16.1738 39.8371 5.172447
16.2058 38.7963 5.043206
16.2378 39.1997 5.078657
16.2698 42.0635 5.315320
16.3018 45.5889 5.554966
16.3338 46.5222 5.639036
16.3658 39.9493 5.150424
16.3978 54.6643 6.143661
16.4298 39.0244 5.130926
16.4618 43.0141 5.374460
16.4938 50.6614 5.831434
16.5257 39.8555 5.190662
16.5577 54.4179 6.028088
16.5897 49.8025 5.863464
16.6217 43.7538 5.390276
16.6537 44.7002 5.519252
16.6857 55.3391 6.129268
16.7177 52.1775 5.938316
16.7497 52.5444 5.940985
16.7817 65.7892 6.660794
16.8137 72.7103 6.977050
16.8457 92.6892 7.883120
16.8777 163.136 10.4914
16.9097 526.9 18.9818
16.9417 3124.57 46.2067
16.9737 250.477 13.0632
17.0057 118.628 8.955405
17.0377 83.4735 7.590605
17.0697 78.0662 7.309616
17.1017 71.775 6.968956
17.1337 65.2488 6.628809
17.1656 84.1528 7.591793
17.1976 81.7271 7.442198
17.2296 130.096 9.389074
17.2616 246.666 13.0034
17.2936 874.427 24.5068
17.3256 3486.54 48.8753
17.3576 331.316 15.0442
17.3896 152.596 10.2118
17.4216 97.9116 8.186842
17.4536 81.8675 7.452227
17.4856 69.4477 6.862842
17.5176 59.6789 6.371537
17.5496 58.7362 6.263387
17.5816 50.1724 5.870515
17.6136 52.7154 5.989233
17.6456 46.1373 5.572303
17.6776 38.1741 5.132237
17.7096 50.832 5.914046
17.7416 54.0485 6.044078
17.7736 51.4535 5.891857
17.8055 193.547 11.4964
17.8375 56.1642 6.158224
17.8695 43.2929 5.340184
17.9015 39.1143 5.080215
17.9335 46.1893 5.540744
17.9655 44.3593 5.462193
17.9975 49.3322 5.752725
18.0295 38.7533 5.133260
18.0615 43.6616 5.487259
18.0935 50.3093 5.868808
18.1255 44.5171 5.476122
18.1575 51.803 5.947924
18.1895 45.9907 5.576019
18.2215 46.243 5.569045
18.2535 41.1938 5.245607
18.2855 49.3517 5.757625
18.3175 47.9063 5.721380
18.3495 46.7569 5.641600
18.3815 39.926 5.217871
18.4135 41.805 5.318058
18.4454 43.5444 5.463929
18.4774 57.6412 6.150449
18.5094 49.5595 5.828324
18.5414 46.7477 5.641266
18.5734 42.9513 5.450820
18.6054 50.0499 5.804096
18.6374 69.6729 6.851456
18.6694 160.171 10.4559
18.7014 51.8222 5.956855
18.7334 44.3 5.452039
18.7654 49.8419 5.850165
18.7974 47.3619 5.673253
18.8294 45.9621 5.586012
18.8614 48.7189 5.761974
18.8934 61.1625 6.436063
18.9254 49.3076 5.722260
18.9574 47.6872 5.699899
18.9894 47.1658 5.655239
19.0214 56.8259 6.135387
19.0534 54.9338 6.129159
19.0853 70.1413 6.909767
19.1173 67.0644 6.730936
19.1493 93.7328 7.909442
19.1813 178.055 11.0664
19.2133 2320.14 39.8513
19.2453 249.769 13.0909
19.2773 320.459 14.7756
19.3093 309.608 14.568
19.3413 85.9646 7.627125
19.3733 62.6183 6.497053
19.4053 60.837 6.486494
19.4373 49.6174 5.798262
19.4693 46.7978 5.535835
19.5013 58.3198 6.317952
19.5333 46.6712 5.621934
19.5653 53.7948 5.995661
19.5973 48.8022 5.734476
19.6293 45.6576 5.493819
19.6613 42.4558 5.375384
19.6933 48.1228 5.677598
19.7252 47.7285 5.704943
19.7572 56.4774 6.199116
19.7892 49.0144 5.778372
19.8212 51.7166 5.948457
19.8532 58.9813 6.324893
19.8852 51.529 5.958976
19.9172 53.7318 5.986379
19.9492 85.375 7.598712
19.9812 104.311 8.399306
20.0132 479.57 18.0976
20.0452 119.821 9.031143
20.0772 69.2515 6.854428
20.1092 52.5763 5.919311
20.1412 40.8318 5.220143
20.1732 47.799 5.686908
20.2052 52.9665 6.042526
20.2372 44.0854 5.456989
20.2692 49.3439 5.805106
20.3012 48.9744 5.794451
20.3332 48.2434 5.738192
20.3652 44.3194 5.524176
20.3971 43.4753 5.362111
20.4291 55.0184 6.103178
20.4611 51.8447 5.953297
20.4931 58.1353 6.238780
20.5251 74.9022 7.088345
20.5571 71.0488 6.971505
20.5891 53.4959 6.027020
20.6211 52.0424 5.983174
20.6531 57.0097 6.160169
20.6851 64.2467 6.610884
20.7171 71.6068 7.012280
20.7491 140.661 9.792574
20.7811 329.49 15.1251
20.8131 74.865 7.232922
20.8451 67.5027 6.809155
20.8771 48.1729 5.661610
20.9091 52.4665 5.960731
20.9411 66.7852 6.745640
20.9731 51.0695 5.934667
21.0051 40.0812 5.205337
21.037 50.8818 5.899835
21.069 47.4953 5.681596
21.101 55.5152 6.226029
21.133 78.4831 7.318139
21.165 404.942 16.6608
21.197 371.075 15.9689
21.229 89.5587 7.797935
21.261 56.6757 6.217027
21.293 54.899 6.045567
21.325 53.7093 5.971532
21.357 51.2761 5.854974
21.389 56.1013 6.126651
21.421 48.5596 5.638177
21.453 55.214 6.131668
21.485 49.9146 5.789223
21.517 49.531 5.739404
21.549 38.9465 5.144608
21.581 62.8322 6.507416
21.613 62.7418 6.532308
21.645 80.3576 7.376767
21.6769 245.691 12.991
21.7089 289.636 14.0966
21.7409 91.8612 7.928314
21.7729 58.8621 6.331565
21.8049 49.7331 5.802227
21.8369 49.7883 5.771231
21.8689 54.727 6.109790
21.9009 58.9843 6.185060
21.9329 58.3532 6.294753
21.9649 56.993 6.252421
21.9969 76.1064 7.217001
22.0289 332.672 15.1282
22.0609 87.5577 7.741531
22.0929 179.283 11.0612
22.1249 694.96 21.872
22.1569 100.585 8.301808
22.1889 68.2655 6.833514
22.2209 50.3696 5.863583
22.2529 51.5924 5.889796
22.2849 46.2778 5.607310
22.3168 49.7088 5.799817
22.3488 42.8215 5.432962
22.3808 48.3777 5.698750
22.4128 50.7366 5.813837
22.4448 38.4984 5.112854
22.4768 49.1819 5.748371
22.5088 54.075 6.078371
22.5408 49.7192 5.849737
22.5728 54.4941 6.030309
22.6048 54.1982 6.098288
22.6368 53.5795 6.085405
22.6688 47.7595 5.759934
22.7008 54.797 6.030839
22.7328 57.2626 6.181848
22.7648 70.0109 6.897959
22.7968 101.435 8.353733
22.8288 128.385 9.401045
22.8608 386.64 16.2738
22.8928 749.597 22.7325
22.9248 124.786 9.167503
22.9567 86.5788 7.695529
22.9887 71.9159 7.032101
23.0207 63.5274 6.616769
23.0527 57.7928 6.235618
23.0847 45.5184 5.606702
23.1167 48.7312 5.733366
23.1487 50.7333 5.872133
23.1807 46.1778 5.613175
23.2127 47.6385 5.652781
23.2447 48.157 5.750210
23.2767 48.5475 5.757509
23.3087 40.2395 5.227281
23.3407 45.7397 5.638989
23.3727 49.2117 5.786064
23.4047 50.7357 5.780518
23.4367 99.1775 8.222363
23.4687 109.155 8.681122
23.5007 56.0421 6.172136
23.5327 54.7489 6.147798
23.5647 43.5042 5.443536
23.5966 45.2928 5.549221
23.6286 46.7765 5.640450
23.6606 49.8183 5.795710
23.6926 40.3208 5.176541
23.7246 51.5001 5.864165
23.7566 48.2019 5.704203
23.7886 58.4972 6.291488
23.8206 63.2534 6.533374
23.8526 77.4936 7.236724
23.8846 117.372 9.009228
23.9166 629.578 20.786
23.9486 264.811 13.4478
23.9806 92.4973 7.977673
24.0126 67.7319 6.737430
24.0446 54.384 6.159831
24.0766 50.7014 5.847188
24.1086 44.3857 5.445349
24.1406 54.9283 6.129073
24.1726 42.9035 5.413537
24.2046 47.6242 5.670692
24.2366 88.7741 7.778456
24.2685 66.9511 6.695649
24.3005 138.249 9.765115
24.3325 86.0032 7.689403
24.3645 54.1335 6.086583
24.3965 47.2476 5.638198
24.4285 58.5733 6.332484
24.4605 46.4732 5.652240
24.4925 42.8766 5.421909
24.5245 56.0615 6.213496
24.5565 52.769 6.004175
24.5885 45.7853 5.555168
24.6205 41.8055 5.341655
24.6525 42.4896 5.380151
24.6845 47.1536 5.670748
24.7165 51.1522 5.863107
24.7485 47.5843 5.615197
24.7805 42.8137 5.369623
24.8125 44.6784 5.558641
24.8445 39.6774 5.173228
24.8765 41.0562 5.266680
24.9084 43.9154 5.488476
24.9404 49.7531 5.804211
24.9724 41.3298 5.281035
25.0044 49.182 5.768693
25.0364 40.2213 5.241288
25.0684 42.4966 5.423112
25.1004 51.673 6.024412
25.1324 48.3383 5.709635
25.1644 52.4246 5.985761
25.1964 46.8854 5.579920
25.2284 45.4804 5.590144
25.2604 40.9851 5.199025
25.2924 43.4364 5.469748
25.3244 62.8858 6.648431
25.3564 48.3258 5.735613
25.3884 81.1008 7.451495
25.4204 47.8297 5.745322
25.4524 46.7151 5.614973
25.4844 66.6075 6.815920
25.5164 72.9099 7.073035
25.5483 117.978 8.985279
25.5803 148.407 10.1067
25.6123 60.2822 6.438045
25.6443 46.7324 5.718679
25.6763 48.5865 5.787904
25.7083 44.3466 5.535396
25.7403 47.0615 5.678032
25.7723 44.4738 5.480854
25.8043 45.7197 5.598741
25.8363 49.4084 5.804102
25.8683 47.8299 5.707652
25.9003 54.3148 6.152280
25.9323 53.7763 6.079197
25.9643 50.2685 5.845869
25.9963 64.8012 6.625558
26.0283 189.54 11.4058
26.0603 75.8325 7.175420
26.0923 47.374 5.627465
26.1243 51.1079 5.904484
26.1563 51.0689 5.866059
26.1882 52.3106 5.950791
26.2202 59.956 6.414714
26.2522 67.4598 6.757203
26.2842 93.3051 8.008347
26.3162 229.811 12.5633
26.3482 486.819 18.3709
26.3802 132.453 9.552895
26.4122 587.933 20.1337
26.4442 85.593 7.632554
26.4762 83.5516 7.566235
26.5082 66.6795 6.779674
26.5402 77.9551 7.336753
26.5722 174.501 10.8965
26.6042 214.64 12.1205
26.6362 78.2756 7.346569
26.6682 66.1865 6.725685
26.7002 65.8109 6.689647
26.7322 48.7861 5.789299
26.7642 54.1331 6.108590
26.7962 47.9386 5.690522
26.8281 41.5751 5.366635
26.8601 54.8135 6.058395
26.8921 52.1844 5.877277
26.9241 81.5093 7.449296
26.9561 37.4978 5.022284
26.9881 41.387 5.255507
27.0201 43.6967 5.395489
27.0521 41.6746 5.317451
27.0841 53.3988 6.051977
27.1161 58.1832 6.291609
27.1481 103.761 8.414941
27.1801 164.303 10.6483
27.2121 64.8133 6.620086
27.2441 53.1523 6.117674
27.2761 46.4048 5.603248
27.3081 53.4252 6.016385
27.3401 48.6564 5.800423
27.3721 51.7113 5.874298
27.4041 52.71 6.020237
27.4361 56.954 6.234692
27.468 58.2967 6.344651
27.5 237.129 12.7629
27.532 65.3773 6.668566
27.564 46.5612 5.697561
27.596 44.0604 5.473851
27.628 54.3434 6.085659
27.66 49.7476 5.850545
27.692 46.2417 5.618183
27.724 52.4396 5.980496
27.756 55.7487 6.176641
27.788 54.3632 6.059779
27.82 74.3084 7.118576
27.852 111.769 8.766242
27.884 798.815 23.4477
27.916 186.792 11.3621
27.948 85.9615 7.759504
27.98 62.1452 6.490806
28.012 72.2966 7.343380
28.044 56.3317 6.474653
28.076 67.5724 6.954533
28.1079 69.8773 7.138047
28.1399 165.701 11.0886
28.1719 127.168 9.723558
28.2039 75.648 7.453443
28.2359 60.9327 6.642293
28.2679 85.2319 7.964829
28.2999 476.057 18.8419
28.3319 66.5993 7.064154
28.3639 44.5431 5.696172
28.3959 52.4732 6.297173
28.4279 70.3077 7.241692
28.4599 56.5922 6.473409
28.4919 63.6177 6.850064
28.5239 49.7527 6.049390
28.5559 47.5041 5.942585
28.5879 52.0452 6.227327
28.6199 47.2608 5.843777
28.6519 59.0616 6.685726
28.6839 54.2856 6.284785
28.7159 56.5338 6.475545
28.7478 75.4279 7.518207
28.7798 112.525 9.167080
28.8118 219.975 12.8444
28.8438 1190.99 29.899
28.8758 136.674 10.0339
28.9078 69.0023 7.047774
28.9398 59.4597 6.653196
28.9718 59.7998 6.679422
29.0038 55.4187 6.375532
29.0358 52.9495 6.320245
29.0678 49.3751 6.091367
29.0998 51.797 6.152018
29.1318 61.496 6.721148
29.1638 55.1675 6.403168
29.1958 44.9246 5.797598
29.2278 51.0774 6.174593
29.2598 41.0976 5.525813
29.2918 54.9875 6.398505
29.3238 94.4212 8.481802
29.3558 61.2403 6.761785
29.3878 58.2198 6.581163
29.4197 63.1594 6.939434
29.4517 118.714 9.398155
29.4837 57.3041 6.533004
29.5157 55.2756 6.351605
29.5477 62.5088 6.758272
29.5797 52.9427 6.190617
29.6117 56.934 6.539601
29.6437 69.2442 7.175146
29.6757 227.859 13.1304
29.7077 133.06 10.0242
29.7397 54.0469 6.333202
29.7717 51.6799 6.140520
29.8037 59.5924 6.665234
29.8357 55.2845 6.493582
29.8677 54.0911 6.331257
29.8997 60.5949 6.755849
29.9317 73.487 7.390899
29.9637 67.8841 7.171393
29.9957 234.558 13.8765
30.0277 132.969 10.4661
30.0596 280.852 15.2264
30.0916 271.917 14.9627
30.1236 92.7292 8.714204
30.1556 72.9774 7.729160
30.1876 92.6314 8.742838
30.2196 347.128 16.8551
30.2516 133.704 10.4421
30.2836 57.8918 6.871479
30.3156 55.3427 6.666157
30.3476 46.8231 6.248568
30.3796 51.8384 6.530380
30.4116 49.5196 6.401337
30.4436 39.5444 5.661377
30.4756 50.1443 6.388671
30.5076 40.5362 5.695407
30.5396 45.432 6.039343
30.5716 47.8884 6.231510
30.6036 47.0852 6.213704
30.6356 40.8333 5.867104
30.6676 48.0193 6.277548
30.6995 48.1912 6.247959
30.7315 42.0447 5.873670
30.7635 45.1532 6.064843
30.7955 41.5457 5.756756
30.8275 45.2594 5.971824
30.8595 73.0253 7.716898
30.8915 41.1491 5.747946
30.9235 42.9867 5.903756
30.9555 40.7267 5.773084
30.9875 43.5579 5.926063
31.0195 73.9816 7.856438
31.0515 48.0772 6.301947
31.0835 46.1367 6.074861
31.1155 49.7781 6.346863
31.1475 51.7862 6.484646
31.1795 38.3204 5.630452
31.2115 40.792 5.750601
31.2435 44.7652 6.038549
31.2755 54.373 6.726476
31.3075 46.2396 6.149286
31.3394 56.0927 6.728454
31.3714 104.228 9.279259
31.4034 193.39 12.6397
31.4354 225.695 13.6352
31.4674 62.4827 7.098343
31.4994 55.1803 6.671882
31.5314 45.6092 6.119742
31.5634 48.1971 6.268481
31.5954 56.6495 6.836818
31.6274 52.2492 6.461944
31.6594 77.4763 7.966355
31.6914 443.931 19.1695
31.7234 81.7591 8.222158
31.7554 69.5534 7.545440
31.7874 114.154 9.667769
31.8194 46.9782 6.163461
31.8514 60.0476 7.022594
31.8834 56.9328 6.844528
31.9154 48.863 6.296866
31.9474 47.2438 6.248782
31.9793 42.2291 5.851738
32.0113 39.6265 5.899780
32.0433 41.3415 6.074620
32.0753 40.7497 6.056050
32.1073 42.7976 6.255459
32.1393 47.0375 6.396085
32.1713 50.6104 6.789438
32.2033 44.2649 6.286054
32.2353 50.3678 6.907502
32.2673 51.1309 6.804157
32.2993 59.7592 7.377706
32.3313 44.1056 6.440497
32.3633 46.4188 6.470143
32.3953 43.4739 6.381505
32.4273 46.9154 6.465150
32.4593 44.5335 6.402894
32.4913 65.7724 7.838835
32.5233 62.7968 7.533060
32.5553 50.6009 6.644273
32.5873 41.7666 6.101411
32.6193 47.1862 6.618561
32.6512 48.5843 6.733217
32.6832 46.239 6.511831
32.7152 39.9377 6.040399
32.7472 34.3742 5.559457
32.7792 46.2743 6.339759
32.8112 38.8322 5.890699
32.8432 43.3293 6.213159
32.8752 36.2753 5.857683
32.9072 33.6497 5.512540
32.9392 41.9245 6.177938
32.9712 32.7933 5.442981
33.0032 37.2713 5.717419
33.0352 38.8635 5.913977
33.0672 45.894 6.480923
33.0992 34.6771 5.662962
33.1312 44.5144 6.383014
33.1632 53.6916 6.926697
33.1952 45.2333 6.287185
33.2272 56.7284 7.217176
33.2591 76.8573 8.329604
33.2911 205.53 13.7485
33.3231 138.783 11.2202
33.3551 167.226 12.3407
33.3871 294.148 16.3962
33.4191 67.4678 7.849641
33.4511 56.4469 7.091618
33.4831 56.1753 7.173614
33.5151 47.2061 6.541924
33.5471 50.1816 6.706098
33.5791 47.5624 6.528400
33.6111 51.1499 6.923316
33.6431 48.6008 6.580073
33.6751 51.075 6.819463
33.7071 43.1671 6.153005
33.7391 53.1784 6.937556
33.7711 68.6868 7.860711
33.8031 42.0307 6.242359
33.8351 41.48 6.111155
33.8671 42.5516 6.108814
33.8991 37.8214 5.946373
33.931 43.3755 6.180623
33.963 39.8677 6.081307
33.995 37.625 6.046900
34.027 38.8327 6.121610
34.059 50.308 7.169276
34.091 42.7581 6.576013
34.123 50.295 7.080733
34.155 44.2221 6.696571
34.187 36.2393 6.098732
34.219 33.9498 5.765146
34.251 92.6407 9.740314
34.283 49.9245 7.030421
34.315 52.6756 7.295327
34.347 71.7489 8.521872
34.379 59.1625 7.756641
34.411 46.5723 6.918829
34.443 43.9966 6.637307
34.475 45.6187 6.749755
34.507 53.0307 7.196973
34.539 53.2537 7.337220
34.5709 126.07 11.3381
34.6029 58.3388 7.746628
34.6349 48.3408 7.068293
34.6669 37.9817 6.181635
34.6989 47.6723 6.937182
34.7309 47.7166 6.957988
34.7629 41.4407 6.405031
34.7949 47.3015 6.832043
34.8269 55.3453 7.338197
34.8589 52.5745 7.310275
34.8909 64.9086 8.240586
34.9229 71.7627 8.591539
34.9549 41.435 6.473973
34.9869 67.113 8.209571
35.0189 107.808 10.4253
35.0509 331.886 18.2946
35.0829 56.3514 7.519983
35.1149 47.4544 6.983461
35.1469 46.2348 6.836260
35.1789 38.0529 6.192839
35.2108 45.3929 6.758425
35.2428 39.5825 6.311596
35.2748 45.8586 6.629590
35.3068 51.0508 7.214575
35.3388 38.9898 6.349272
35.3708 47.1656 6.897747
35.4028 37.3991 6.155423
35.4348 35.0401 5.909509
35.4668 48.7909 7.073703
35.4988 48.5347 7.039641
35.5308 32.5345 5.669336
35.5628 41.0787 6.482418
35.5948 40.8685 6.343320
35.6268 37.4585 6.083980
35.6588 43.3189 6.602646
35.6908 40.8207 6.432773
35.7228 58.486 7.715999
35.7548 101.847 10.1162
35.7868 57.4251 7.661979
35.8188 40.4666 6.399322
35.8507 45.4109 6.702339
35.8827 31.8906 5.663361
35.9147 44.3753 6.460846
35.9467 40.0888 6.288404
35.9787 47.2129 6.777848
36.0107 48.2872 7.329439
36.0427 63.2076 8.349894
36.0747 242.69 16.5446
36.1067 48.8735 7.379589
36.1387 48.8671 7.427923
36.1707 43.0922 6.906601
36.2027 43.5434 6.865651
36.2347 44.139 6.990560
36.2667 50.7057 7.579036
36.2987 61.2063 8.290213
36.3307 101.63 10.6825
36.3627 82.5246 9.635913
36.3947 306.243 18.6206
36.4267 85.5698 9.737934
36.4587 57.7564 7.973745
36.4906 55.4757 7.881237
36.5226 156.341 13.2538
36.5546 44.9492 7.032934
36.5866 45.7733 7.156592
36.6186 51.6092 7.580229
36.6506 39.9236 6.682944
36.6826 42.4438 6.920200
36.7146 57.5144 8.040708
36.7466 34.9941 6.214458
36.7786 41.9919 6.964763
36.8106 42.4571 6.808484
36.8426 46.6811 7.277258
36.8746 47.9253 7.359848
36.9066 41.956 6.783800
36.9386 55.8831 7.854320
36.9706 81.6075 9.553695
37.0026 41.6608 6.861398
37.0346 41.2087 6.870394
37.0666 44.426 7.023224
37.0986 55.0793 7.763240
37.1305 43.7853 6.962871
37.1625 42.5409 6.814201
37.1945 35.8557 6.273117
37.2265 40.8802 6.789406
37.2585 39.9265 6.681720
37.2905 37.3351 6.438530
37.3225 49.6828 7.465654
37.3545 35.3789 6.310569
37.3865 34.0096 6.126561
37.4185 37.1069 6.416752
37.4505 48.5685 7.432738
37.4825 50.2844 7.527338
37.5145 200.324 14.9999
37.5465 42.0893 6.817384
37.5785 51.5915 7.667669
37.6105 134.258 12.3251
37.6425 51.8162 7.618545
37.6745 58.1052 8.096291
37.7065 85.5904 9.756908
37.7385 77.2232 9.240201
37.7705 331.77 19.3738
37.8024 65.5568 8.556287
37.8344 47.8051 7.161506
37.8664 42.1176 6.868749
37.8984 46.0644 7.165236
37.9304 47.6191 7.309934
37.9624 41.9187 6.882186
37.9944 45.2065 7.571147
38.0264 50.7724 8.301382
38.0584 44.2113 7.675550
38.0904 42.1048 7.469502
38.1224 41.3517 7.368268
38.1544 46.3818 7.679523
38.1864 52.2917 8.258181
38.2184 76.0964 10.1054
38.2504 457.024 24.673
38.2824 55.639 8.407315
38.3144 50.694 8.140925
38.3464 40.704 7.354881
38.3784 25.9506 6.039431
38.4104 40.8296 7.292897
38.4423 35.1317 6.941309
38.4743 61.1866 9.175887
38.5063 68.9725 9.550579
38.5383 56.1983 8.613944
38.5703 57.3215 8.647996
38.6023 66.0334 9.324563
38.6343 123.123 12.6522
38.6663 46.1783 7.839416
38.6983 53.1344 8.323578
38.7303 94.2801 11.1565
38.7623 39.8783 7.203175
38.7943 36.7149 6.918768
38.8263 44.5909 7.661767
38.8583 33.4866 6.616382
38.8903 33.3968 6.602392
38.9223 39.5138 7.186690
38.9543 41.9232 7.321902
38.9863 56.1246 8.533360
39.0183 59.6639 8.844332
39.0503 50.1618 8.271936
39.0822 53.1421 8.407868
39.1142 41.9041 7.452027
39.1462 63.5845 9.214487
39.1782 71.1063 9.737948
39.2102 107.265 11.9008
39.2422 135.964 13.337
39.2742 51.0555 8.158242
39.3062 47.707 7.862630
39.3382 48.0482 7.976835
39.3702 45.5752 7.799111
39.4022 32.1565 6.592976
39.4342 41.0508 7.247127
39.4662 38.5089 7.187580
39.4982 37.6104 6.979537
39.5302 38.352 7.169376
39.5622 33.0691 6.622721
39.5942 50.4812 8.158150
39.6262 42.6563 7.522069
39.6582 39.5349 7.208707
39.6902 40.9611 7.281135
39.7221 42.7674 7.609929
39.7541 39.2139 7.021811
39.7861 41.9821 7.362596
39.8181 39.175 7.208088
39.8501 43.9631 7.589731
39.8821 29.6517 6.296939
39.9141 44.6429 7.694804
39.9461 33.1463 6.470446
39.9781 30.8068 6.256776
40.0101 41.0004 8.089881
40.0421 29.6835 6.800467
40.0741 42.3452 8.390774
40.1061 48.7143 8.729258
40.1381 34.802 7.506599
40.1701 35.4241 7.484231
40.2021 48.0522 8.753843
40.2341 56.0552 9.637414
40.2661 223.673 18.9455
40.2981 91.165 12.2366
40.3301 71.5056 10.8485
40.362 161.412 16.1167
40.394 70.085 10.6322
40.426 56.3606 9.545854
40.458 54.174 9.327624
40.49 36.6744 7.441510
40.522 55.9314 9.396729
40.554 72.8515 10.994
40.586 49.0593 8.953293
40.618 37.8674 7.589032
40.65 47.3638 8.711415
40.682 82.3353 11.62
40.714 63.8989 10.1448
40.746 44.1701 8.564446
40.778 38.3875 7.831241
40.81 47.876 8.870746
40.842 36.8034 7.651789
40.874 37.7201 7.606748
40.906 52.8398 9.336766
40.938 40.7841 8.072170
40.97 33.7561 7.541289
41.0019 46.0151 8.643950
41.0339 35.2573 7.564960
41.0659 35.2706 7.591754
41.0979 56.6156 9.612785
41.1299 34.0793 7.397807
41.1619 48.4258 8.839392
41.1939 26.8123 6.675286
41.2259 57.8705 9.717178
41.2579 47.4035 8.691011
41.2899 36.5534 7.460183
41.3219 101.388 12.7638
41.3539 61.2721 9.887635
41.3859 47.9147 8.916868
41.4179 21.1988 5.736040
41.4499 40.8948 8.115752
41.4819 30.5404 6.915687
41.5139 26.3172 6.569443
41.5459 38.5478 7.901209
41.5779 40.8042 8.119707
41.6099 32.0121 7.137011
41.6418 45.5478 8.550483
41.6738 37.4936 7.758560
41.7058 34.6168 7.493114
41.7378 42.774 8.218858
41.7698 57.9106 9.752842
41.8018 66.1546 10.3264
41.8338 183.842 17.3865
41.8658 80.0618 11.3057
41.8978 127.368 14.4345
41.9298 55.7855 9.406434
41.9618 29.8512 6.874045
41.9938 42.2641 9.054272
42.0258 29.375 7.756249
42.0578 24.5432 7.029498
42.0898 39.9669 8.798277
42.1218 38.2803 8.627417
42.1538 43.5589 9.343585
42.1858 32.452 8.007754
42.2178 31.3165 7.767079
42.2498 56.4887 10.5997
42.2818 57.4272 10.503
42.3137 43.7678 9.223168
42.3457 39.0328 8.602396
42.3777 41.9641 9.123263
42.4097 24.5333 6.962656
42.4417 43.69 9.236811
42.4737 52.3394 10.3791
42.5057 28.2111 7.385661
42.5377 38.5693 8.637538
42.5697 22.7912 6.542752
42.6017 37.7442 8.661482
42.6337 37.0296 8.708647
42.6657 38.6785 8.591336
42.6977 40.3365 8.999519
42.7297 34.7852 8.259854
42.7617 35.8787 8.496757
42.7937 30.6428 7.787193
42.8257 37.8263 8.670775
42.8577 56.6862 10.5738
42.8897 139.556 16.4424
42.9217 73.6807 12.1002
42.9536 106.58 14.5086
42.9856 53.1882 10.251
43.0176 40.8141 9.023824
43.0496 49.3744 9.872306
43.0816 64.2055 11.2068
43.1136 189.396 19.4793
43.1456 54.8063 10.3326
43.1776 71.4533 11.8031
43.2096 35.7569 8.123681
43.2416 31.2446 7.504225
43.2736 45.245 9.398938
43.3056 39.2214 8.723357
43.3376 43.1629 9.197737
43.3696 44.21 9.371926
43.4016 32.2499 7.780166
43.4336 33.8436 8.025278
43.4656 48.803 9.820953
43.4976 50.527 9.720979
43.5296 43.2716 9.105267
43.5616 31.7023 7.979335
43.5935 30.4278 7.686400
43.6255 39.4451 8.920118
43.6575 32.6284 8.029637
43.6895 34.8598 8.098064
43.7215 38.2902 8.783603
43.7535 39.8124 8.941633
43.7855 23.7509 6.711985
43.8175 41.1751 9.007427
43.8495 36.3147 8.592380
43.8815 70.097 11.8007
43.9135 52.346 10.247
43.9455 35.8951 8.610522
43.9775 34.3448 8.259136
44.0095 36.4101 10.0634
44.0415 45.3273 11.4043
44.0735 26.8798 8.668174
44.1055 33.885 9.440481
44.1375 27.8179 8.792636
44.1695 42.0402 10.7534
44.2015 49.7131 11.784
44.2334 63.0799 13.2495
44.2654 59.5863 12.7961
44.2974 45.7774 11.2438
44.3294 30.8081 9.197497
44.3614 37.1262 10.1409
44.3934 64.7725 13.4284
44.4254 89.5389 15.7182
44.4574 47.5156 11.4346
44.4894 49.7889 11.6562
44.5214 94.0609 16.2293
44.5534 33.8313 9.442743
44.5854 27.8825 8.758518
44.6174 47.9525 11.4024
44.6494 18.2335 7.373489
44.6814 28.2856 8.988164
44.7134 26.5445 8.435255
44.7454 35.7421 9.968553
44.7774 36.2246 9.976721
44.8094 40.4963 10.2525
44.8414 18.7662 7.172665
44.8733 34.0608 9.750235
44.9053 53.1438 11.9656
44.9373 30.8071 9.223088
44.9693 31.9363 9.264570
45.0013 26.5477 8.584706
45.0333 31.7268 9.337553
45.0653 37.6906 10.2057
45.0973 24.9527 8.303708
45.1293 35.6878 9.882053
45.1613 30.3625 9.099720
45.1933 27.7712 8.732440
45.2253 33.3315 9.652361
45.2573 26.1524 8.300266
45.2893 39.1533 10.2368
45.3213 44.9851 11.0539
45.3533 55.4633 12.3969
45.3853 59.8262 12.852
45.4173 28.79 8.969265
45.4493 70.9164 13.938
45.4813 32.0847 9.319275
45.5132 28.9097 8.903213
45.5452 34.6651 9.754159
45.5772 69.0769 13.7524
45.6092 54.5337 12.2054
45.6412 44.0972 11.017
45.6732 34.6715 9.735304
45.7052 21.4836 7.568813
45.7372 35.6876 10.0734
45.7692 45.4614 11.1599
45.8012 22.5548 7.742464
45.8332 25.0834 7.985628
45.8652 31.6 9.356320
45.8972 39.5401 10.4224
45.9292 39.0373 10.4789
45.9612 37.6325 10.1491
45.9932 125.312 22.4172
46.0252 67.9798 16.4661
46.0572 22.5051 9.440335
46.0892 34.6649 11.6147
46.1212 63.1626 15.8707
46.1531 85.1372 18.3815
46.1851 44.1305 13.3067
46.2171 38.5511 12.3461
46.2491 28.8708 10.5435
46.2811 27.9205 10.5427
46.3131 25.4575 10.1114
46.3451 51.3867 14.3081
46.3771 37.5281 12.1253
46.4091 56.909 14.9816
46.4411 32.2435 11.3495
46.4731 28.0921 10.606
46.5051 19.8773 8.855678
46.5371 34.3732 11.6079
46.5691 38.9143 12.4441
46.6011 32.3724 11.317
46.6331 28.0444 10.3472
46.6651 30.175 10.6518
46.6971 39.1635 12.2426
46.7291 32.6686 11.3467
46.7611 49.2743 14.0264
46.7931 102.076 20.0723
46.825 41.532 12.7713
46.857 50.2251 14.2187
46.889 63.7156 15.7441
46.921 67.6812 16.359
46.953 117.415 21.6548
46.985 53.8188 14.6659
47.017 8.656767 6.573634
47.049 43.0233 12.9927
47.081 26.0552 10.2096
47.113 23.9838 9.744286
47.145 38.0453 12.1697
47.177 59.7701 15.4248
47.209 22.2928 9.424759
47.241 36.4339 12.025
47.273 20.9939 8.710642
47.305 26.4652 9.869572
47.337 36.4894 11.9798
47.369 32.7434 11.1306
47.401 35.2957 11.0893
47.433 22.2437 9.447447
47.4649 26.309 10.2374
47.4969 15.83 8.288580
47.5289 28.2821 10.6875
47.5609 42.0054 12.7354
47.5929 29.8146 10.8858
47.6249 31.8683 11.2833
47.6569 30.1297 10.6465
47.6889 24.7964 9.770999
47.7209 25.6895 9.860580
47.7529 36.2311 12.0394
47.7849 40.7549 12.8225
47.8169 42.3326 13.0328
47.8489 26.9881 10.2683
47.8809 76.5955 17.2667
47.9129 35.7231 11.9516
47.9449 20.8738 9.164383
47.9769 34.4974 11.7042
48.0089 23.2383 13.7168
48.0409 30.7341 15.7221
48.0729 48.0629 19.7487
48.1048 40.532 18.1539
48.1368 23.9386 13.9131
48.1688 9.431149 8.489287
48.2008 63.5001 22.6632
48.2328 30.8106 15.7641
48.2648 19.3009 12.3841
48.2968 27.4112 14.2384
48.3288 33.2548 16.207
48.3608 52.4095 20.6199
48.3928 37.4671 17.2114
48.4248 21.0331 13.0203
48.4568 8.124389 8.124389
48.4888 33.0593 16.1609
48.5208 13.1418 10.2048
48.5528 27.7528 14.9893
48.5848 33.7698 16.4553
48.6168 37.5252 17.2202
48.6488 16.2835 11.5142
48.6808 17.1917 11.4503
48.7128 26.213 14.4197
48.7447 24.349 13.7259
48.7767 33.5826 16.0013
48.8087 2.687395 8.867445
48.8407 31.2392 15.9155
48.8727 44.6239 18.7168
48.9047 16.2879 11.5173
48.9367 48.3428 19.8268
48.9687 56.8288 21.5152
49.0007 24.5303 14.1151
49.0327 48.9797 19.9775
49.0647 31.6904 16.072
49.0967 54.7119 20.9793
49.1287 104.016 29.1017
49.1607 61.0756 22.182
49.1927 43.086 18.4569
49.2247 32.6118 16.3059
49.2567 48.8384 19.9382
49.2887 29.1449 15.3015
49.3207 8.137911 8.137911
49.3527 29.4427 15.4551
49.3846 12.2365 9.844166
49.4166 32.5535 16.2768
49.4486 22.5746 13.3684
49.4806 9.706255 10.2435
49.5126 21.0485 13.0369
49.5446 30.1258 15.1103
49.5766 48.6094 19.408
49.6086 25.5327 14.2315
49.6406 77.4351 24.897
49.6726 19.8097 12.65
49.7046 25.6819 14.1061
49.7366 24.4401 14.1105
49.7686 13.2895 11.5041
49.8006 11.0096 9.193800
49.8326 37.6384 17.3782
49.8646 9.817650 8.713416
49.8966 40.9288 18.2693
49.9286 24.478 14.1324
49.9606 16.3199 11.5282
49.9896 25.2399 14.3261