File: Samples/PowderCalibrations/CeO2_674b.xy
XYDATA
! Title:  11BM APS CeO2
INTER 1.0 1.0 2 0.0010
TEMP 295.0
! Fullprof format INSTRM=10 (x, y, sigma)
! File no. =               4717
! No. steps =             34500
! Scan time =             JUN 01, 2014 01:51
! Sample name =           NIST SRM 674b (CeO2)
! Composition =           Cerium(IV) oxide
! Sample Comment =        0.8 mm dia Kapton
! Temp (K) =              295.0
! 2theta step (deg) =     0.001
! Time per step (sec) =   0.1
! 100/Ring Current[0] =   0.982
! Monitor I0 [0] =        92926.4
! Monitor I1 [0] =        75877.3
! Gonio._radius [mm] =    1000.0
! Calibration file =      11bmb_4699_2thcorr.calib
! 2Theta correction subtracted
! Calibrated wavelength = 0.413671
! Normalization factor  = 8.3538
!
! 2theta, intensity, sigma(intensity)
2.000000 114.403 14.2031
2.031995 112.274 14.1006
2.063990 89.9415 12.5675
2.095985 100.712 13.3296
2.127980 109.867 13.9105
2.159975 126.587 14.9235
2.191970 107.577 13.8157
2.223965 103.782 13.5153
2.255960 79.5191 11.9249
2.287955 101.944 13.3693
2.319950 84.8779 12.3135
2.351945 124.098 14.7561
2.383940 107.641 13.7991
2.415935 90.559 12.6196
2.447931 94.8103 12.9674
2.479926 103.181 13.4688
2.511921 110.575 13.921
2.543916 102.662 13.4588
2.575911 95.0326 12.9978
2.607906 85.9499 12.3427
2.639901 67.608 10.9302
2.671896 91.6247 12.7907
2.703891 85.4808 12.3055
2.735886 105.873 13.6815
2.767881 84.395 12.1838
2.799876 88.6157 12.4114
2.831871 83.3529 12.0899
2.863866 83.7558 12.1899
2.895861 69.9683 11.1396
2.927856 74.8387 11.4327
2.959851 84.5592 12.3693
2.991846 72.4125 11.1452
3.023841 79.5623 11.8638
3.055836 91.9319 12.6793
3.087831 74.3577 11.4751
3.119826 68.8929 10.9328
3.151821 82.4468 12.0495
3.183816 92.7068 12.8514
3.215811 73.1682 11.346
3.247806 94.113 12.8258
3.279801 75.0181 11.5244
3.311796 83.5566 12.1175
3.343792 81.1283 11.8616
3.375787 78.1037 11.6541
3.407782 78.1801 11.7421
3.439777 91.5239 12.6368
3.471772 56.9643 9.971401
3.503767 92.9214 11.5381
3.535762 75.1643 10.2379
3.567757 81.3514 10.7745
3.599752 86.8844 11.0283
3.631747 94.2323 11.5879
3.663742 103.602 12.1253
3.695737 90.1868 11.2504
3.727732 78.7068 10.5743
3.759727 89.641 11.3068
3.791722 87.0363 11.1632
3.823717 85.5674 11.0858
3.855712 82.4411 10.8402
3.887707 86.6968 11.1081
3.919702 88.0376 11.1754
3.951697 77.7336 10.545
3.983692 103.704 12.2577
4.015687 79.7356 10.7527
4.047682 93.1216 11.4761
4.079677 78.7857 10.6214
4.111672 110.782 12.5757
4.143667 68.6719 9.765795
4.175662 87.4614 11.071
4.207658 75.4317 10.2937
4.239653 85.8827 11.1132
4.271648 83.652 10.9474
4.303643 131.916 13.7421
4.335638 107.994 12.4957
4.367633 97.9098 11.8986
4.399628 117.106 12.9232
4.431623 91.7878 11.334
4.463618 97.2915 11.8435
4.495613 102.705 12.0586
4.527608 85.4702 11.1964
4.559603 118.993 13.0341
4.591598 93.7418 11.5866
4.623593 95.1594 11.6789
4.655588 98.1369 11.8085
4.687583 101.102 11.7272
4.719578 106.999 12.2722
4.751573 91.1902 11.2809
4.783568 131.652 13.7239
4.815563 113.82 12.6681
4.847558 111.191 12.6575
4.879553 105.981 12.3834
4.911548 98.0377 11.8602
4.943543 127.22 13.4418
4.975538 117.914 12.9533
5.007533 127.551 13.6823
5.039528 93.9939 11.5422
5.071523 111.25 12.4894
5.103519 120.309 13.1908
5.135514 110.997 12.6247
5.167509 106.906 12.3186
5.199504 120.177 13.0757
5.231499 102.147 12.1395
5.263494 105.48 12.2856
5.295489 99.7515 11.8749
5.327484 107.582 12.4168
5.359479 101.429 12.0373
5.391474 94.4777 11.5829
5.423469 107.102 12.3848
5.455464 108.691 12.4894
5.487459 98.3587 11.8378
5.519454 119.441 11.9094
5.551449 99.8917 10.9603
5.583444 103.327 11.1755
5.615439 93.358 10.5994
5.647434 100.122 10.9371
5.679429 123.142 12.1087
5.711424 86.7559 10.2468
5.743419 99.6607 10.8651
5.775414 103.633 11.1114
5.807409 94.0174 10.5814
5.839404 93.3801 10.5164
5.871399 93.8931 10.5378
5.903394 92.2256 10.5472
5.935389 75.8754 9.369407
5.967384 87.0171 10.2095
5.999380 86.6652 10.2749
6.031375 71.1114 9.202758
6.063370 90.0339 10.4518
6.095365 68.4263 9.022321
6.127360 86.2151 10.0605
6.159355 90.9595 10.3741
6.191350 79.0718 9.667743
6.223345 78.5641 9.659570
6.255340 79.5388 9.764180
6.287335 94.8385 10.6105
6.319330 96.3751 10.6654
6.351325 85.3164 10.0382
6.383320 99.3204 10.8334
6.415315 99.9188 10.9833
6.447310 102.514 11.0258
6.479305 84.5199 9.956441
6.511300 89.4203 10.3446
6.543295 73.5681 9.377364
6.575290 103.4 11.1406
6.607285 83.0277 9.968842
6.639280 69.9284 9.119601
6.671275 83.6667 9.948258
6.703270 88.1392 10.3264
6.735265 139.026 12.9749
6.767260 116.127 11.8274
6.799255 81.545 9.894130
6.831250 102.469 11.1607
6.863246 91.985 10.453
6.895241 111.543 11.5343
6.927236 88.405 10.3053
6.959231 100.151 10.9067
6.991226 97.988 10.8335
7.023221 109.688 11.4321
7.055216 98.1176 10.8992
7.087211 89.0877 10.2855
7.119206 106.695 11.2192
7.151201 107.858 11.2125
7.183196 132.8 12.5707
7.215191 133.874 12.7402
7.247186 108.293 11.3621
7.279181 131.343 12.5366
7.311176 110.233 11.382
7.343171 133.116 12.6904
7.375166 152.231 13.5332
7.407161 155.486 13.6869
7.439156 233.288 16.5462
7.471151 303.467 19.1101
7.503146 506.214 23.145
7.535141 1602.33 41.2054
7.567136 9360.13 99.4236
7.599131 92472.2 312.208
7.631126 3371.4 59.6481
7.663121 935.361 31.3435
7.695116 354.107 19.3409
7.727111 238.396 15.8234
7.759107 188.911 14.125
7.791102 173.681 13.5853
7.823097 152.954 12.6916
7.855092 105.809 10.4608
7.887087 107.756 10.6282
7.919082 108.611 10.5893
7.951077 89.9078 9.730253
7.983072 97.3126 10.1283
8.015067 87.7398 9.536408
8.047062 94.8725 9.917358
8.079057 91.5749 9.816416
8.111052 88.6141 9.725924
8.143047 94.7277 9.946547
8.175042 104.271 10.5037
8.207037 80.9256 9.238467
8.239032 105.069 10.5601
8.271027 154.871 12.8011
8.303022 117.358 11.1686
8.335017 99.8233 10.2382
8.367012 80.9243 9.131468
8.399007 84.825 9.463513
8.431002 78.622 8.996824
8.462997 71.1319 8.611764
8.494992 83.8074 9.402441
8.526987 80.5469 9.167812
8.558982 89.6305 9.663705
8.590977 103.661 10.4022
8.622973 98.0383 10.0993
8.654968 149.452 12.5495
8.686963 205.058 14.6441
8.718958 589.069 24.9305
8.750953 5523.8 76.3789
8.782948 6772.72 84.483
8.814943 738.133 27.9259
8.846938 227.651 15.5568
8.878933 131.862 11.832
8.910928 111.559 10.8108
8.942923 87.0157 9.508924
8.974918 97.4287 10.1523
9.006913 73.1978 8.782720
9.038908 77.2067 8.981330
9.070903 59.5087 7.841314
9.102898 83.612 9.420146
9.134893 78.767 9.003816
9.166888 69.7785 8.641018
9.198883 68.413 8.465331
9.230878 80.9512 9.206906
9.262873 54.8283 7.561486
9.294868 66.3222 8.402303
9.326863 54.3908 7.577571
9.358858 65.7943 8.318626
9.390853 55.5483 7.651025
9.422848 62.1 8.105062
9.454843 72.1436 8.673027
9.486838 68.6246 8.445791
9.518834 61.4741 7.491317
9.550829 64.5103 7.635147
9.582824 63.5013 7.602161
9.614819 60.2258 7.361590
9.646814 59.7667 7.297774
9.678809 64.8976 7.631018
9.710804 66.6263 7.776395
9.742799 70.9615 8.055876
9.774794 61.3275 7.342215
9.806789 64.847 7.662702
9.838784 69.2975 7.950605
9.870779 74.5951 8.291199
9.902774 74.6359 8.191766
9.934769 57.6651 7.143872
9.966764 64.5746 7.568102
9.998759 59.4739 7.318526
10.0308 54.0343 7.030445
10.0627 58.3534 7.292373
10.0947 61.6277 7.502331
10.1267 63.5083 7.658555
10.1587 73.3249 8.172877
10.1907 50.9121 6.806974
10.2227 54.1261 7.056749
10.2547 68.7491 7.909974
10.2867 64.9682 7.590740
10.3187 76.4515 8.286331
10.3507 73.6961 8.130223
10.3827 62.9569 7.506479
10.4147 63.4589 7.597253
10.4467 71.4083 7.969513
10.4787 54.0697 6.883293
10.5107 63.7332 7.631315
10.5427 65.2062 7.666176
10.5747 55.1463 7.034591
10.6067 68.49 7.873973
10.6387 62.6603 7.512784
10.6707 60.503 7.478735
10.7027 76.4783 8.323080
10.7346 74.0085 8.161626
10.7666 65.0914 7.674845
10.7986 61.268 7.457901
10.8306 70.3841 8.040190
10.8626 71.187 8.003111
10.8946 74.3591 8.231904
10.9266 72.8538 8.020544
10.9586 63.4311 7.567659
10.9906 74.4471 8.327178
11.0226 82.7093 8.617435
11.0546 95.1552 9.359076
11.0866 101.816 9.618564
11.1186 63.8626 7.649132
11.1506 67.1322 7.792166
11.1826 90.0162 9.070527
11.2146 68.2293 7.883418
11.2466 66.9162 7.683762
11.2786 74.3097 8.176173
11.3106 75.4755 8.141332
11.3426 68.9436 7.935995
11.3745 71.5141 7.987076
11.4065 60.5713 7.475080
11.4385 61.8607 7.448122
11.4705 75.5573 8.299794
11.5025 60.2051 6.998618
11.5345 64.1393 7.263230
11.5665 84.2278 8.388434
11.5985 84.9825 8.447338
11.6305 70.7874 7.597117
11.6625 76.6566 7.932040
11.6945 70.7894 7.571657
11.7265 77.2303 7.922141
11.7585 87.8025 8.476134
11.7905 77.3813 7.930634
11.8225 95.6035 8.879565
11.8545 83.0145 8.289138
11.8865 72.6827 7.746955
11.9185 74.6423 7.832886
11.9505 87.5939 8.497810
11.9825 100.729 9.086281
12.0144 98.5754 9.059962
12.0464 140.158 10.7743
12.0784 102.404 9.185931
12.1104 114.586 9.721186
12.1424 97.0212 8.998865
12.1744 103.844 9.293249
12.2064 129.597 10.3757
12.2384 160.314 11.4608
12.2704 198.021 12.8563
12.3024 245.996 14.2256
12.3344 538.436 21.0946
12.3664 1550.17 35.8077
12.3984 21752.8 134.16
12.4304 10880.3 94.9544
12.4624 1351.93 33.4723
12.4944 459.442 19.5228
12.5264 238.598 14.002
12.5584 180.411 12.2479
12.5904 128.202 10.2715
12.6224 131.744 10.4163
12.6543 174.249 12.0464
12.6863 119.645 9.937171
12.7183 119.372 9.922928
12.7503 114.261 9.652578
12.7823 90.3538 8.535675
12.8143 101.058 9.128701
12.8463 100.369 9.132057
12.8783 94.3741 8.860229
12.9103 97.7249 9.010774
12.9423 92.1659 8.721106
12.9743 89.7208 8.589416
13.0063 87.0555 8.529792
13.0383 86.7431 8.449241
13.0703 81.7998 8.193072
13.1023 77.1826 7.984440
13.1343 81.0067 8.173012
13.1663 100.308 9.086959
13.1983 101.619 9.126458
13.2303 78.5529 8.099438
13.2623 81.1216 8.171342
13.2942 83.3165 8.339835
13.3262 75.892 7.878858
13.3582 88.0611 8.452773
13.3902 71.8792 7.731075
13.4222 83.8092 8.306506
13.4542 102.024 9.146284
13.4862 82.0582 8.266696
13.5182 78.2301 7.616598
13.5502 92.1048 8.260981
13.5822 78.6534 7.657591
13.6142 93.5085 8.327455
13.6462 86.3642 8.028967
13.6782 93.6824 8.363550
13.7102 87.7222 8.084112
13.7422 78.8762 7.691253
13.7742 85.7227 7.991606
13.8062 84.2518 7.924836
13.8382 95.672 8.433532
13.8702 101.49 8.769366
13.9022 84.3146 7.818638
13.9341 84.6308 7.928874
13.9661 93.4131 8.285057
13.9981 100.763 8.635186
14.0301 103.764 8.813839
14.0621 96.7463 8.446511
14.0941 105.865 8.925710
14.1261 84.5031 7.831787
14.1581 93.6927 8.323503
14.1901 102.748 8.719605
14.2221 103.031 8.708886
14.2541 115.392 9.277039
14.2861 116.947 9.363979
14.3181 120.219 9.491464
14.3501 133.06 10.0037
14.3821 164.323 11.11
14.4141 164.546 11.0895
14.4461 212.662 12.661
14.4781 336.172 15.8217
14.5101 933.548 26.4827
14.5421 5907.63 66.4896
14.574 39693.8 172.303
14.606 1779.93 36.4555
14.638 531.138 19.9116
14.67 244.743 13.5185
14.702 187.22 11.8112
14.734 141.449 10.2407
14.766 145.213 10.3377
14.798 119.94 9.494090
14.83 110.812 9.108950
14.862 126.704 9.743953
14.894 109.669 8.994563
14.926 117.092 9.372670
14.958 106.013 8.856734
14.99 97.0395 8.493568
15.022 119.445 9.519863
15.054 108.877 9.015843
15.086 118.446 9.326155
15.118 137.28 10.0931
15.15 198.458 12.1934
15.182 575.341 20.7625
15.214 27319.9 143.301
15.2459 726.998 23.3121
15.2779 220.211 12.8558
15.3099 137.081 10.1483
15.3419 95.474 8.432259
15.3739 87.5002 8.090420
15.4059 91.7795 8.236186
15.4379 90.1248 8.161221
15.4699 77.407 7.579921
15.5019 101.856 8.352546
15.5339 94.0598 8.069603
15.5659 91.9434 7.922840
15.5979 75.3941 7.139379
15.6299 80.5035 7.354389
15.6619 76.3931 7.233541
15.6939 73.4551 7.078244
15.7259 84.2006 7.522217
15.7579 71.5504 6.963032
15.7899 81.1678 7.454242
15.8219 66.6383 6.735411
15.8539 71.839 6.977093
15.8858 67.5305 6.795000
15.9178 75.0859 7.117182
15.9498 74.7022 7.094677
15.9818 82.5682 7.522312
16.0138 73.319 7.046220
16.0458 78.047 7.337570
16.0778 67.3728 6.746106
16.1098 70.5209 6.945101
16.1418 73.5529 7.126860
16.1738 79.5333 7.332592
16.2058 63.4043 6.570434
16.2378 81.9333 7.510405
16.2698 78.4058 7.277892
16.3018 76.5162 7.192460
16.3338 70.4314 6.923075
16.3658 74.9946 7.143875
16.3978 75.3283 7.083132
16.4298 70.8323 6.920346
16.4618 80.6769 7.450582
16.4938 66.1245 6.722703
16.5257 66.0761 6.720903
16.5577 71.8349 6.988161
16.5897 68.3559 6.846760
16.6217 71.583 6.984778
16.6537 71.9268 7.010210
16.6857 68.1459 6.773559
16.7177 69.8004 6.904513
16.7497 76.2767 7.188033
16.7817 60.2124 6.432224
16.8137 77.4225 7.275423
16.8457 75.3941 7.222754
16.8777 70.5911 6.889439
16.9097 64.1986 6.618945
16.9417 73.226 7.077000
16.9737 76.4178 7.221703
17.0057 73.7145 7.084513
17.0377 65.2504 6.650754
17.0697 73.0318 6.997232
17.1017 79.6836 7.334367
17.1337 71.0212 6.945586
17.1656 87.8178 7.737744
17.1976 83.4304 7.530314
17.2296 73.6708 7.044559
17.2616 77.2356 7.268392
17.2936 87.2217 7.641200
17.3256 81.0781 7.429420
17.3576 85.2526 7.617415
17.3896 98.7873 8.166065
17.4216 89.8795 7.829051
17.4536 88.0014 7.728053
17.4856 110.202 8.685867
17.5176 176.543 10.993
17.5496 454.711 17.6101
17.5816 14619 100.04
17.6136 956.061 25.5721
17.6456 227.268 12.4109
17.6776 138.541 9.784712
17.7096 93.655 7.966327
17.7416 117.066 8.957989
17.7736 96.1045 8.036618
17.8055 95.4343 8.032109
17.8375 90.4146 7.854435
17.8695 87.5154 7.708378
17.9015 83.9804 7.548825
17.9335 80.3545 7.394500
17.9655 89.1848 7.821769
17.9975 89.4573 7.775986
18.0295 89.2329 7.801237
18.0615 83.1629 7.540125
18.0935 80.6935 7.363697
18.1255 96.81 8.086262
18.1575 89.1988 7.838688
18.1895 87.4072 7.652404
18.2215 84.213 7.537388
18.2535 84.3934 7.594433
18.2855 90.6123 7.854708
18.3175 89.0358 7.751294
18.3495 97.2896 8.150576
18.3815 85.9525 7.689126
18.4135 87.848 7.686833
18.4454 89.0291 7.773768
18.4774 86.2931 7.682071
18.5094 90.5554 7.839407
18.5414 100.425 8.257147
18.5734 91.8588 7.892637
18.6054 109.464 8.610465
18.6374 87.5315 7.701019
18.6694 88.525 7.700029
18.7014 104.801 8.393062
18.7334 96.256 8.050929
18.7654 98.9425 8.219030
18.7974 108.937 8.620853
18.8294 98.6905 8.198123
18.8614 106.563 8.533068
18.8934 114.988 8.787699
18.9254 104.677 8.435909
18.9574 120.825 9.083235
18.9894 110.886 8.672626
19.0214 127.07 9.265544
19.0534 145.27 9.957008
19.0853 213.834 12.0906
19.1173 402.006 16.659
19.1493 1560.67 32.6242
19.1813 69713.1 218.907
19.2133 1386.26 30.8482
19.2453 394.593 16.4531
19.2773 205.159 11.8894
19.3093 167.492 10.7516
19.3413 147.842 10.0292
19.3733 123.806 9.196505
19.4053 134.267 9.561259
19.4373 137.387 9.674602
19.4693 122.246 9.101986
19.5013 139.773 9.767895
19.5333 131.691 9.439593
19.5653 148.694 10.0634
19.5973 184.46 11.204
19.6293 371.901 15.9801
19.6613 2015.69 37.1682
19.6933 9549.78 80.8937
19.7252 612.571 20.4484
19.7572 225.156 12.3977
19.7892 158.316 10.3884
19.8212 112.949 8.801139
19.8532 126.892 9.284161
19.8852 123.544 9.134945
19.9172 103.086 8.330681
19.9492 121.284 9.181756
19.9812 118.543 8.925721
20.0132 124.499 9.237243
20.0452 99.7347 8.251757
20.0772 105.867 8.535421
20.1092 106.15 8.524519
20.1412 86.9618 7.724454
20.1732 106.326 8.539690
20.2052 107.471 8.541950
20.2372 108.318 8.613916
20.2692 95.1558 8.019842
20.3012 102.355 8.301210
20.3332 96.339 8.087619
20.3652 119.173 9.045389
20.3971 105.246 8.487255
20.4291 109.607 8.618638
20.4611 95.529 8.044289
20.4931 93.3039 7.961370
20.5251 99.6252 8.227352
20.5571 98.1432 8.162828
20.5891 105.499 8.522874
20.6211 92.7824 7.955071
20.6531 88.7829 7.738615
20.6851 100.369 8.260842
20.7171 101.591 8.306264
20.7491 94.6889 7.983029
20.7811 97.3709 8.062003
20.8131 96.4717 8.078931
20.8451 98.2494 8.161520
20.8771 99.2964 8.227075
20.9091 107.422 8.632618
20.9411 104.575 8.440859
20.9731 96.9444 8.042905
21.0051 108.435 8.633191
21.037 134.891 9.655218
21.069 102.239 8.420571
21.101 111.422 8.743005
21.133 111.29 8.768841
21.165 107.094 8.558520
21.197 116.003 8.932646
21.229 112.01 8.742607
21.261 112.499 8.821383
21.293 121.351 9.106240
21.325 111.289 8.688210
21.357 114.683 8.856255
21.389 131.424 9.466648
21.421 122.146 9.132238
21.453 149.8 10.1779
21.485 209.672 11.997
21.517 370.318 15.8941
21.549 1227.49 28.9591
21.581 55394.1 194.929
21.613 1658.81 33.7141
21.645 423.815 17.0208
21.6769 201.204 11.6862
21.7089 171.792 10.8177
21.7409 145.064 9.944715
21.7729 137.177 9.646087
21.8049 126.902 9.221283
21.8369 124.955 9.190403
21.8689 117.642 8.972187
21.9009 122.692 9.201960
21.9329 109.026 8.590167
21.9649 115.952 8.971317
21.9969 109.797 8.650617
22.0289 103.152 8.467900
22.0609 116.706 8.905790
22.0929 108.554 8.649771
22.1249 104.379 8.373766
22.1569 106.305 8.505211
22.1889 108.19 8.526922
22.2209 105.938 8.502172
22.2529 106.738 8.458741
22.2849 112.589 8.772331
22.3168 100.507 8.216067
22.3488 106.141 8.456595
22.3808 105.742 8.492112
22.4128 92.7117 7.928151
22.4448 99.5997 8.249136
22.4768 102.792 8.373579
22.5088 101.984 8.333061
22.5408 99.7759 8.226332
22.5728 106.217 8.503893
22.6048 109.701 8.629462
22.6368 114.25 8.793307
22.6688 117.003 8.904741
22.7008 122.575 9.114896
22.7328 127.27 9.301911
22.7648 127.03 9.258183
22.7968 145.202 9.957667
22.8288 233.798 12.6918
22.8608 474.225 18.0374
22.8928 4010.34 52.39
22.9248 5375.28 60.7055
22.9567 560.972 19.6265
22.9887 232.549 12.6182
23.0207 156.209 10.2696
23.0527 137.95 9.731447
23.0847 111.658 8.694762
23.1167 123.519 9.136730
23.1487 110.009 8.622927
23.1807 100.169 8.266134
23.2127 113.337 8.773090
23.2447 99.2622 8.177301
23.2767 101.544 8.264144
23.3087 111.333 8.651089
23.3407 96.8452 8.083197
23.3727 89.1298 7.818178
23.4047 103.104 8.408142
23.4367 94.019 8.002666
23.4687 102.206 8.352196
23.5007 92.2511 7.962466
23.5327 84.462 7.561261
23.5647 84.7641 7.631452
23.5966 100.597 8.285227
23.6286 93.4091 8.002179
23.6606 85.1618 7.621658
23.6926 91.1204 7.915445
23.7246 94.8473 8.007329
23.7566 77.7341 7.308868
23.7886 105.78 8.491594
23.8206 105.194 8.424308
23.8526 87.9429 7.711781
23.8846 88.9545 7.701738
23.9166 87.9663 7.737075
23.9486 97.3938 8.146593
23.9806 85.9212 7.675938
24.0126 90.7368 7.880519
24.0446 89.7974 7.810737
24.0766 91.959 7.881410
24.1086 87.0126 7.744713
24.1406 91.5606 7.938101
24.1726 87.179 7.661906
24.2046 96.7907 8.129177
24.2366 87.2562 7.664594
24.2685 87.6198 7.664336
24.3005 94.3815 8.001385
24.3325 100.87 8.285050
24.3645 86.5161 7.618675
24.3965 88.3825 7.775219
24.4285 97.4812 8.115986
24.4605 96.6747 8.056303
24.4925 90.3527 7.822246
24.5245 87.3007 7.696054
24.5565 95.062 8.043116
24.5885 93.6735 7.969136
24.6205 104.976 8.470318
24.6525 96.1854 8.074586
24.6845 96.2559 8.132568
24.7165 110.164 8.690095
24.7485 106.881 8.491654
24.7805 104.338 8.421011
24.8125 110.326 8.703078
24.8445 122.537 9.126211
24.8765 126.963 9.309608
24.9084 199.764 11.6793
24.9404 517.058 18.82
24.9724 19224.6 114.903
25.0044 535.974 19.2014
25.0364 186.24 11.2505
25.0684 120.897 8.988743
25.1004 115.325 8.851287
25.1324 117.366 8.960917
25.1644 115.341 8.815798
25.1964 106.387 8.449626
25.2284 103.382 8.359168
25.2604 122.352 9.100212
25.2924 100.565 8.286615
25.3244 106.345 8.579956
25.3564 102.616 8.299810
25.3884 110.316 8.642316
25.4204 103.102 8.369729
25.4524 102.312 8.366878
25.4844 118.785 8.924151
25.5164 100.733 8.273716
25.5483 109.428 8.633891
25.5803 108.872 8.643299
25.6123 125.864 9.247596
25.6443 116.325 8.854404
25.6763 121.392 9.115329
25.7083 110.8 8.652197
25.7403 110.693 8.685429
25.7723 128.515 9.368191
25.8043 123.029 9.130204
25.8363 129.257 9.390386
25.8683 143.647 9.909290
25.9003 139.389 9.813137
25.9323 126.688 9.308279
25.9643 137.328 9.698178
25.9963 147.611 10.0545
26.0283 160.744 10.479
26.0603 270.955 13.5873
26.0923 609.556 20.4096
26.1243 7533.97 71.7748
26.1563 3263.17 47.1971
26.1882 491.471 18.35
26.2202 243.838 12.8156
26.2522 175.01 10.8793
26.2842 155.057 10.261
26.3162 143.483 9.913761
26.3482 160.122 10.4882
26.3802 157.952 10.3219
26.4122 168.226 10.732
26.4442 196.932 11.5796
26.4762 450.416 17.5573
26.5082 10321.1 84.1144
26.5402 856.977 24.2017
26.5722 249.422 13.0545
26.6042 155.293 10.3076
26.6362 141.072 9.796303
26.6682 135.519 9.614547
26.7002 131.629 9.488085
26.7322 123.89 9.168710
26.7642 118.667 8.960652
26.7962 119.707 8.995282
26.8281 111.759 8.640885
26.8601 112.599 8.743463
26.8921 108.801 8.500884
26.9241 117.207 8.880659
26.9561 112.737 8.731412
26.9881 119.723 9.026658
27.0201 109.932 8.662646
27.0521 105.819 8.465188
27.0841 118.519 9.037714
27.1161 103.161 8.419763
27.1481 95.2921 8.081160
27.1801 112.045 8.777059
27.2121 110.123 8.663950
27.2441 110.83 8.698798
27.2761 98.8335 8.221880
27.3081 103.212 8.380425
27.3401 106.191 8.522547
27.3721 100.212 8.220617
27.4041 100.387 8.269029
27.4361 100.33 8.279157
27.468 111.424 8.741489
27.5 102.509 8.380299
27.532 107.385 8.554638
27.564 107.89 8.567377
27.596 111.864 8.728510
27.628 102.77 8.325574
27.66 103.25 8.362498
27.692 110.561 8.715861
27.724 92.5737 7.937386
27.756 118.677 8.966752
27.788 128.375 9.283357
27.82 135.856 9.637934
27.852 142.123 9.836383
27.884 158.221 10.3462
27.916 226.419 12.4177
27.948 750.637 22.6608
27.98 20167.2 117.625
28.012 552.338 20.2697
28.044 215.082 12.591
28.076 132.581 9.909843
28.1079 132.445 9.934169
28.1399 123.168 9.496867
28.1719 124.969 9.552955
28.2039 103.053 8.707541
28.2359 114.344 9.140042
28.2679 105.319 8.795432
28.2999 113.757 9.163338
28.3319 97.2469 8.490663
28.3639 105.204 8.835345
28.3959 102.275 8.760825
28.4279 100.114 8.625017
28.4599 106.79 8.874392
28.4919 96.3489 8.457793
28.5239 103.293 8.705579
28.5559 99.2809 8.583931
28.5879 115.871 9.318547
28.6199 100.228 8.653839
28.6519 99.3697 8.577480
28.6839 103.188 8.763969
28.7159 110.636 9.066398
28.7478 90.7981 8.165917
28.7798 114.41 9.232835
28.8118 115.957 9.290966
28.8438 117.762 9.347925
28.8758 95.9843 8.350800
28.9078 125.185 9.604162
28.9398 139.007 10.1429
28.9718 217.705 12.7425
29.0038 738.38 23.3706
29.0358 7611.98 75.2277
29.0678 375.32 16.6632
29.0998 163.735 11.0541
29.1318 131.963 9.882513
29.1638 138.024 10.094
29.1958 131.347 9.867140
29.2278 127.502 9.697799
29.2598 128.637 9.757044
29.2918 132.163 9.913420
29.3238 213.583 12.616
29.3558 1230.57 30.2233
29.3878 1382.25 32.0278
29.4197 209.382 12.4612
29.4517 144.956 10.3497
29.4837 112.601 9.093286
29.5157 117.313 9.346411
29.5477 115.523 9.223806
29.5797 95.9431 8.435843
29.6117 112.155 9.086359
29.6437 112.012 9.101372
29.6757 103.57 8.716051
29.7077 89.7562 8.196839
29.7397 100.094 8.589596
29.7717 93.4196 8.346675
29.8037 101.899 8.693971
29.8357 86.1792 7.997745
29.8677 91.2742 8.257255
29.8997 109.776 9.004628
29.9317 88.1652 8.022352
29.9637 94.8928 8.426912
29.9957 99.7485 9.052819
30.0277 111.851 9.533386
30.0596 101.06 9.052240
30.0916 87.7803 8.421924
30.1236 90.9442 8.611368
30.1556 103.105 9.226932
30.1876 107.165 9.285201
30.2196 89.382 8.471499
30.2516 100.521 9.023708
30.2836 95.6552 8.847261
30.3156 101.513 9.076914
30.3476 98.6895 8.949284
30.3796 99.8267 9.048751
30.4116 96.4584 8.853170
30.4436 100.413 9.058247
30.4756 111.932 9.585720
30.5076 93.176 8.728546
30.5396 105.709 9.259080
30.5716 110.165 9.472375
30.6036 99.6626 9.026808
30.6356 113.232 9.599823
30.6676 187.053 12.4133
30.6995 1472.67 34.619
30.7315 444.575 19.0207
30.7635 160.018 11.4711
30.7955 106.348 9.358716
30.8275 114.506 9.626773
30.8595 98.3567 8.905864
30.8915 98.8866 8.965772
30.9235 102.252 9.040435
30.9555 100.764 9.050960
30.9875 106.219 9.354629
31.0195 103.827 9.187827
31.0515 105.735 9.271415
31.0835 110.149 9.404495
31.1155 95.8808 8.810365
31.1475 110.019 9.523315
31.1795 107.055 9.274531
31.2115 109.05 9.473516
31.2435 101.052 9.079149
31.2755 125.267 10.0932
31.3075 118.62 9.765108
31.3394 115.99 9.683179
31.3714 115.763 9.705950
31.4034 120.529 9.973578
31.4354 111.377 9.586697
31.4674 109.998 9.468477
31.4994 135.894 10.5586
31.5314 130.752 10.3975
31.5634 154.798 11.1892
31.5954 197.583 12.6205
31.6274 326.983 16.3699
31.6594 1608.66 36.1798
31.6914 4516.36 60.7655
31.7234 416.755 18.3962
31.7554 203.488 12.854
31.7874 156.375 11.2384
31.8194 140.839 10.6583
31.8514 129.081 10.212
31.8834 153.977 11.2483
31.9154 161.835 11.4406
31.9474 208.525 13.0016
31.9793 857.631 26.4513
32.0113 1248.99 33.5997
32.0433 210.396 13.8527
32.0753 135.605 11.0038
32.1073 128.337 10.7499
32.1393 127.023 10.6337
32.1713 122.326 10.5233
32.2033 124.223 10.5439
32.2353 118.11 10.3632
32.2673 119.749 10.4289
32.2993 118.351 10.3673
32.3313 106.036 9.684447
32.3633 117.45 10.2269
32.3953 121.282 10.3976
32.4273 117.997 10.3536
32.4593 118.901 10.3722
32.4913 112.185 10.0662
32.5233 124.323 10.5424
32.5553 120.82 10.4477
32.5873 112.432 10.0728
32.6193 108.451 9.880704
32.6512 108.691 9.933599
32.6832 126.66 10.6321
32.7152 101.677 9.527501
32.7472 133.204 10.9707
32.7792 120.706 10.366
32.8112 120.023 10.4298
32.8432 138.329 11.2347
32.8752 129.189 10.7639
32.9072 128.771 10.8074
32.9392 118.482 10.3248
32.9712 116.085 10.192
33.0032 137.09 11.0968
33.0352 133.329 10.939
33.0672 134.923 11.0019
33.0992 141.246 11.3009
33.1312 185.013 12.9064
33.1632 223.395 14.2337
33.1952 432.589 19.8301
33.2272 4789.85 65.8722
33.2591 1884.57 41.319
33.2911 312.72 16.7852
33.3231 223.373 14.1874
33.3551 159.765 11.9656
33.3871 158.623 12.0187
33.4191 129.375 10.7828
33.4511 119.807 10.3834
33.4831 117.42 10.3275
33.5151 134.306 11.0315
33.5471 124.995 10.5902
33.5791 120.133 10.4478
33.6111 118.186 10.3011
33.6431 132.812 10.9556
33.6751 130.055 10.9395
33.7071 131.074 10.9071
33.7391 128.086 10.7716
33.7711 113.895 10.1052
33.8031 120.765 10.4453
33.8351 130.497 10.7951
33.8671 135.804 11.1331
33.8991 129.787 10.8074
33.931 138.069 11.1408
33.963 151.98 11.7586
33.995 145.592 12.0886
34.027 162.176 12.716
34.059 191.878 13.9111
34.091 344.037 18.572
34.123 1668.14 40.9528
34.155 6497.09 80.7071
34.187 483.358 21.9818
34.219 197.791 14.0886
34.251 169.185 13.0449
34.283 154.806 12.5683
34.315 127.763 11.3524
34.347 136.598 11.6287
34.379 128.85 11.3033
34.411 129.529 11.3564
34.443 116.873 10.8296
34.475 108.147 10.3731
34.507 102.851 10.1262
34.539 110.017 10.534
34.5709 112.697 10.6207
34.6029 110.716 10.5604
34.6349 109.285 10.5203
34.6669 117.718 10.8811
34.6989 111.399 10.4881
34.7309 109.241 10.4424
34.7629 103.969 10.1122
34.7949 97.9618 9.809755
34.8269 100.963 9.989480
34.8589 99.1806 10.0286
34.8909 99.9524 9.973596
34.9229 101.739 10.1202
34.9549 87.3194 9.290947
34.9869 94.9899 9.779400
35.0189 109.671 10.5207
35.0509 94.6174 9.669488
35.0829 97.3905 9.900068
35.1149 105.3 10.2072
35.1469 106.63 10.304
35.1789 103.268 10.1761
35.2108 98.1217 9.786905
35.2428 113.293 10.6266
35.2748 98.716 9.848311
35.3068 84.6203 9.279337
35.3388 110.378 10.4983
35.3708 102.689 10.1547
35.4028 107.109 10.4001
35.4348 106.826 10.2656
35.4668 92.5452 9.619338
35.4988 99.204 9.996358
35.5308 101.252 10.0686
35.5628 129.86 11.3799
35.5948 471.389 21.7323
35.6268 306.567 17.6054
35.6588 129.903 11.3698
35.6908 94.8097 9.616167
35.7228 96.4071 9.753050
35.7548 110.864 10.5176
35.7868 107.648 10.3126
35.8188 95.4855 9.699665
35.8507 95.42 9.811090
35.8827 101.756 9.996343
35.9147 103.905 10.308
35.9467 80.6268 9.015088
35.9787 85.2144 9.136747
36.0107 109.448 11.1346
36.0427 102.534 10.7456
36.0747 96.6151 10.352
36.1067 99.2878 10.4941
36.1387 103.647 10.6683
36.1707 98.8982 10.4462
36.2027 83.5009 9.512964
36.2347 94.5069 10.2413
36.2667 104.926 10.8252
36.2987 107.467 10.9062
36.3307 112.263 11.2133
36.3627 102.964 10.7231
36.3947 134.95 12.3337
36.4267 247.705 16.5498
36.4587 5210.97 76.1043
36.4906 341.766 19.4882
36.5226 139.571 12.4103
36.5546 132.962 12.1557
36.5866 118.348 11.3969
36.6186 121.192 11.6522
36.6506 144.225 12.6005
36.6826 193.221 14.6923
36.7146 441.248 22.0745
36.7466 7037.09 88.4371
36.7786 332.384 19.2116
36.8106 157.288 13.1005
36.8426 133.031 12.1374
36.8746 123.942 11.7498
36.9066 112.799 11.149
36.9386 103.744 10.6914
36.9706 107.189 10.9482
37.0026 106.295 10.8889
37.0346 105.358 10.8049
37.0666 97.8992 10.4028
37.0986 116.835 11.2988
37.1305 101.212 10.467
37.1625 108.654 10.9342
37.1945 98.7124 10.4051
37.2265 102.268 10.631
37.2585 87.5234 9.823340
37.2905 110.731 11.0935
37.3225 101.869 10.5708
37.3545 94.3207 10.2085
37.3865 108.903 11.085
37.4185 118.859 11.5259
37.4505 100.773 10.5686
37.4825 95.8317 10.3439
37.5145 108.167 10.9611
37.5465 104.406 10.7623
37.5785 101.492 10.6721
37.6105 101.332 10.5233
37.6425 101.405 10.5532
37.6745 135.006 12.3023
37.7065 101.47 10.6271
37.7385 121.356 11.6189
37.7705 165.765 13.5137
37.8024 246.142 16.4411
37.8344 1988.61 47.0814
37.8664 1050.46 34.2024
37.8984 204.304 15.0916
37.9304 146.072 12.7048
37.9624 131.388 12.0552
37.9944 108.42 11.9434
38.0264 124.158 12.7154
38.0584 128.551 12.8946
38.0904 106.518 11.835
38.1224 115.021 12.3272
38.1544 119.394 12.4244
38.1864 120.55 12.4689
38.2184 109.598 11.8492
38.2504 105.161 11.6737
38.2824 118.124 12.5471
38.3144 108.31 11.9299
38.3464 110.667 11.988
38.3784 104.081 11.6225
38.4104 100.741 11.5726
38.4423 102.585 11.5266
38.4743 122.172 12.5611
38.5063 130.574 12.9853
38.5383 163.563 14.5607
38.5703 136.668 13.4107
38.6023 210.404 16.6901
38.6343 715.26 30.5856
38.6663 5517.03 84.7548
38.6983 325.019 20.4831
38.7303 156.118 14.1501
38.7623 126.092 12.8479
38.7943 133.822 13.1161
38.8263 134.605 13.2748
38.8583 142.387 13.6989
38.8903 201.879 16.2312
38.9223 2923.8 61.8699
38.9543 269.794 18.7
38.9863 155.522 14.2407
39.0183 139.82 13.4927
39.0503 114.062 12.2345
39.0822 118.415 12.4613
39.1142 101.968 11.6012
39.1462 112.488 12.0596
39.1782 112.612 12.228
39.2102 112.508 12.0838
39.2422 117.747 12.4898
39.2742 98.9207 11.4149
39.3062 108.924 11.9879
39.3382 106.18 11.7761
39.3702 102.645 11.584
39.4022 127.405 12.848
39.4342 106.527 11.7981
39.4662 122.033 12.5801
39.4982 118.718 12.4395
39.5302 117.134 12.4279
39.5622 101.048 11.4271
39.5942 106.51 11.7284
39.6262 111.958 12.0346
39.6582 96.6855 11.363
39.6902 104.711 11.7373
39.7221 118.172 12.4418
39.7541 94.2991 11.0592
39.7861 120.614 12.578
39.8181 123.165 12.7641
39.8501 107.663 11.9083
39.8821 118.108 12.3125
39.9141 156.398 14.2711
39.9461 254.263 18.247
39.9781 5067.68 81.496
40.0101 281.246 21.1479
40.0421 138.91 14.9039
40.0741 117.738 13.7991
40.1061 123.04 14.0218
40.1381 118.52 13.7061
40.1701 122.939 14.0279
40.2021 132.324 14.4102
40.2341 122.116 14.0874
40.2661 131.007 14.5225
40.2981 98.4306 12.5076
40.3301 123.432 14.2235
40.362 134.419 14.8012
40.394 118.781 13.8143
40.426 94.0032 12.1788
40.458 113.586 13.4741
40.49 116.792 13.7128
40.522 127.968 14.3544
40.554 115.891 13.4054
40.586 127.137 14.2341
40.618 151.33 15.5801
40.65 141.374 15.0814
40.682 172.389 16.5851
40.714 344.951 23.5977
40.746 4195.33 81.8501
40.778 819.396 36.2234
40.81 264.682 20.6276
40.842 168.303 16.5319
40.874 146.316 15.2401
40.906 136.137 14.7551
40.938 156.076 15.9372
40.97 247.762 19.9457
41.0019 2163.42 58.7625
41.0339 458.59 27.0141
41.0659 183.416 17.1613
41.0979 132.314 14.4293
41.1299 149.557 15.3848
41.1619 131.053 14.5388
41.1939 138.407 14.9497
41.2259 98.4247 12.6581
41.2579 106.464 13.0654
41.2899 113.829 13.4677
41.3219 121.941 13.9384
41.3539 117.092 13.8202
41.3859 110.216 13.2903
41.4179 109.664 13.3336
41.4499 102.137 12.7743
41.4819 99.118 12.4536
41.5139 98.7422 12.5123
41.5459 118.351 13.7432
41.5779 123.45 14.1658
41.6099 95.8199 12.5407
41.6418 107.444 13.0961
41.6738 107.581 13.0235
41.7058 128.453 14.3908
41.7378 106.766 13.1194
41.7698 110.393 13.3059
41.8018 100.711 12.6522
41.8338 115.578 13.5594
41.8658 113.064 13.3749
41.8978 116.532 13.6773
41.9298 110.452 13.1488
41.9618 157.137 15.9717
41.9938 305.397 24.3496
42.0258 3015.24 76.5015
42.0578 210.171 20.2189
42.0898 126.126 15.6984
42.1218 111.116 14.7251
42.1538 104.187 14.1478
42.1858 96.1629 13.6513
42.2178 89.9501 13.1741
42.2498 96.8714 13.8254
42.2818 83.2467 12.6074
42.3137 94.0668 13.3956
42.3457 76.9808 12.1584
42.3777 106.044 14.4246
42.4097 77.9625 12.2803
42.4417 143.008 16.7049
42.4737 98.5916 13.84
42.5057 117.526 15.1513
42.5377 100.347 13.8871
42.5697 117.065 15.1073
42.6017 132.503 15.8732
42.6337 110.409 14.6485
42.6657 99.9182 13.9151
42.6977 116.92 15.1198
42.7297 258.622 22.5889
42.7617 4779.13 96.4012
42.7937 367.43 26.7784
42.8257 142.887 16.5559
42.8577 148.385 17.0903
42.8897 129.504 15.8834
42.9217 97.3542 13.6254
42.9536 109.684 14.6161
42.9856 112.73 14.6447
43.0176 99.4928 13.7733
43.0496 88.0639 13.0788
43.0816 90.4779 13.1514
43.1136 101.825 13.9948
43.1456 101.863 14.1342
43.1776 87.9035 12.9137
43.2096 91.1125 13.2614
43.2416 72.8705 11.6425
43.2736 84.0917 12.6711
43.3056 95.6142 13.5797
43.3376 88.4121 13.0397
43.3696 114.121 14.9681
43.4016 103.723 14.0391
43.4336 104.53 14.4493
43.4656 99.7056 13.9957
43.4976 82.0182 12.5501
43.5296 88.4308 13.1576
43.5616 127.329 15.7712
43.5935 96.1865 13.573
43.6255 100.936 13.9054
43.6575 98.0474 13.7705
43.6895 94.6933 13.4983
43.7215 102.23 13.9575
43.7535 98.2651 13.9852
43.7855 105.917 14.3222
43.8175 108.136 14.385
43.8495 89.0203 13.2156
43.8815 112.748 14.8843
43.9135 101.091 13.9088
43.9455 214.579 20.3743
43.9775 2001.63 62.5113
44.0095 308.823 29.0228
44.0415 120.043 18.062
44.0735 108.229 17.06
44.1055 117.294 17.8885
44.1375 97.3553 16.214
44.1695 102.778 16.7196
44.2015 116.793 17.7118
44.2334 83.9098 14.9333
44.2654 89.648 15.7248
44.2974 116.295 17.8294
44.3294 96.8275 16.2497
44.3614 96.46 16.1228
44.3934 132.317 19.051
44.4254 100.762 16.546
44.4574 90.507 15.8002
44.4894 89.0575 15.5001
44.5214 112.636 17.5504
44.5534 107.654 17.0992
44.5854 159.518 20.8372
44.6174 116.206 17.7253
44.6494 231.464 25.1077
44.6814 746.949 45.1112
44.7134 2825.59 87.7436
44.7454 245.203 25.9063
44.7774 167.255 21.3233
44.8094 132.433 18.9239
44.8414 124.267 18.3037
44.8733 106.909 17.0315
44.9053 175.509 21.7869
44.9373 2070.69 75.1924
44.9693 223.562 24.6557
45.0013 128.087 18.81
45.0333 107.02 17.041
45.0653 114.004 17.559
45.0973 89.2282 15.3436
45.1293 118.439 17.9655
45.1613 140.431 19.5292
45.1933 125.274 18.3558
45.2253 107.48 17.0783
45.2573 96.153 16.103
45.2893 121.211 18.0239
45.3213 111.271 17.5259
45.3533 114.294 17.6786
45.3853 144.724 19.94
45.4173 100.792 16.747
45.4493 100.65 16.6393
45.4813 100.457 16.5066
45.5132 87.6089 15.3264
45.5452 102.669 16.7698
45.5772 126.904 18.5693
45.6092 122.083 18.2015
45.6412 120.02 18.0964
45.6732 97.882 16.2498
45.7052 132.608 19.1138
45.7372 136.78 19.1379
45.7692 96.9524 16.2662
45.8012 137.929 19.3287
45.8332 276.885 27.5493
45.8652 1445.89 62.8829
45.8972 1372.9 61.24
45.9292 228.913 24.8478
45.9612 186.873 22.3693
45.9932 125.135 22.1732
46.0252 111.955 20.883
46.0572 156.428 24.781
46.0892 104.526 20.2135
46.1212 112.999 21.015
46.1531 102.012 19.9171
46.1851 134.529 22.9491
46.2171 117.864 21.3648
46.2491 105.785 19.8075
46.2811 89.074 18.3585
46.3131 136.584 23.1591
46.3451 101.237 19.857
46.3771 102.172 19.935
46.4091 156.786 24.7512
46.4411 84.7933 18.2041
46.4731 130.472 22.6468
46.5051 176.908 26.183
46.5371 325.666 35.7175
46.5691 3294.22 113.734
46.6011 497.765 44.1205
46.6331 209.034 28.6066
46.6651 149.031 24.1996
46.6971 123.554 22.0263
46.7291 130.428 22.5664
46.7611 126.909 22.2647
46.7931 496.997 44.1414
46.825 354.604 37.338
46.857 132.758 22.7628
46.889 110.939 20.6993
46.921 105.762 20.3554
46.953 93.1679 19.1286
46.985 56.1488 14.8027
47.017 104.404 20.2308
47.049 99.5309 19.6188
47.081 106.628 20.3457
47.113 110.15 20.8179
47.145 68.8387 16.1803
47.177 114.678 21.2485
47.209 92.8701 19.0276
47.241 114.957 21.2058
47.273 86.8565 18.4107
47.305 119.811 21.4378
47.337 79.5012 17.6174
47.369 90.5553 18.8598
47.401 90.9522 18.8682
47.433 80.0881 17.6626
47.4649 88.0962 18.5323
47.4969 90.7617 18.9045
47.5289 106.265 20.4499
47.5609 68.7652 16.433
47.5929 72.8068 16.9067
47.6249 78.7416 17.5749
47.6569 86.0206 18.3199
47.6889 105.478 19.8779
47.7209 105.225 20.2041
47.7529 99.606 19.7296
47.7849 127.266 22.3417
47.8169 93.944 19.1881
47.8489 102.491 20.0012
47.8809 87.0563 18.4489
47.9129 131.484 22.6836
47.9449 90.846 18.869
47.9769 98.4499 19.6656
48.0089 136.082 32.8661
48.0409 97.6054 27.7936
48.0729 72.1791 23.9285
48.1048 127.057 31.7481
48.1368 49.1068 19.6853
48.1688 134.471 32.6871
48.2008 94.0815 27.3014
48.2328 116.293 30.3421
48.2648 95.2963 27.5097
48.2968 99.6443 28.1111
48.3288 142.343 33.6045
48.3608 219.48 41.7257
48.3928 3436.84 165.263
48.4248 248.286 44.4057
48.4568 140.658 33.288
48.4888 126.183 31.5328
48.5208 150.431 34.3757
48.5528 154.204 34.9977
48.5848 242.776 43.8706
48.6168 3925.63 176.522
48.6488 238.491 43.5292
48.6808 151.943 34.3701
48.7128 145.842 33.9534
48.7447 97.9255 27.6814
48.7767 90.1509 26.7223
48.8087 148.57 34.377
48.8407 115.342 30.2368
48.8727 114.259 30.0585
48.9047 117.98 30.6218
48.9367 118.829 30.7417
48.9687 56.2718 21.1495
49.0007 87.1501 26.2971
49.0327 79.6795 25.1717
49.0647 40.4377 17.9221
49.0967 131.216 32.2201
49.1287 158.965 35.3768
49.1607 119.218 30.7818
49.1927 129.309 31.984
49.2247 85.8026 26.1293
49.2567 91.3348 26.9298
49.2887 97.8265 27.9027
49.3207 119.718 30.7063
49.3527 79.5862 25.1674
49.3846 143.309 33.6552
49.4166 129.394 32.0342
49.4486 176.422 37.4644
49.4806 414.21 57.262
49.5126 1806.37 119.909
49.5446 231.267 42.8401
49.5766 109.807 29.5264
49.6086 107.675 28.9388
49.6406 103.391 28.6555
49.6726 144.495 33.9084
49.7046 107.105 28.8436
49.7366 135.247 32.8023
49.7686 108.512 29.2644
49.8006 85.0905 25.9494
49.8326 163.989 35.9596
49.8646 111.596 29.8252
49.8966 87.5604 26.4005
49.9286 111.286 29.7809
49.9606 71.5729 23.8576
49.9896 103.213 28.6763