File: Samples/PowderCalibrations/Cr2O3_674b.xy
XYDATA
! Title: 11BM APS Cr2O3 SRM 674b
INTER 1.0 1.0 2 0.0010
TEMP 295.0
! Fullprof format INSTRM=10 (x, y, sigma)
! File no. =               4716
! No. steps =             34500
! Scan time =             JUN 01, 2014 00:52
! Sample name =     	   NIST SRM 674b (Cr2O3)
! Composition =            Chromium(III) oxide
! Sample Comment =         0.8 mm dia Kapton
! Temp (K) =              295.0
! 2theta step (deg) =     0.001
! Time per step (sec) =   0.1
! 100/Ring Current[0] =   0.984
! Monitor I0 [0] =        92666.8
! Monitor I1 [0] =        75642.1
! Gonio._radius [mm] =    1000.0
! Calibration file =      11bmb_4699_2thcorr.calib
! 2Theta correction subtracted
! Normalization factor  = 8.3664
! Calibrated wavelength = 0.413671
!
! 2theta, intensity, sigma(intensity)
2.000000 148.184 16.2272
2.031995 119.454 14.5211
2.063990 164.917 17.1498
2.095985 146.924 16.1265
2.127980 131.255 15.2754
2.159975 123.855 14.7783
2.191970 123.736 14.7614
2.223965 118.757 14.324
2.255960 161.296 16.7468
2.287955 117.062 14.4818
2.319950 115.784 14.2864
2.351945 133.85 15.3937
2.383940 103.404 13.504
2.415935 127.703 15.0226
2.447931 113.131 14.1387
2.479926 91.3213 12.6176
2.511921 108.081 13.8519
2.543916 97.3473 13.0878
2.575911 94.5978 12.8774
2.607906 109.531 13.9912
2.639901 107.084 13.8403
2.671896 83.908 12.1948
2.703891 118.504 14.5329
2.735886 85.3033 12.2173
2.767881 97.5744 13.1391
2.799876 104.172 13.5917
2.831871 115.973 14.2558
2.863866 95.5883 12.9195
2.895861 95.1838 12.7634
2.927856 87.5304 12.3787
2.959851 114.591 14.1997
2.991846 100.464 13.1616
3.023841 112.861 14.108
3.055836 99.1994 13.096
3.087831 86.7754 12.3612
3.119826 99.2517 13.1526
3.151821 102.509 13.3861
3.183816 95.4547 12.8922
3.215811 88.4432 12.4474
3.247806 87.6635 12.3514
3.279801 84.1184 11.9994
3.311796 89.881 12.5099
3.343792 87.2409 12.391
3.375787 118.592 14.4235
3.407782 114.734 14.2595
3.439777 118.491 14.4521
3.471772 76.767 11.5702
3.503767 87.8548 11.23
3.535762 109.29 12.6311
3.567757 97.6539 11.877
3.599752 80.3172 10.7178
3.631747 96.348 11.6879
3.663742 115.256 12.8191
3.695737 114.845 12.7983
3.727732 93.0332 11.5249
3.759727 95.4522 11.6133
3.791722 85.6028 11.1071
3.823717 100.394 12.0237
3.855712 98.2722 11.9082
3.887707 76.2963 10.373
3.919702 122.96 13.2921
3.951697 107.483 12.4318
3.983692 118.26 12.9326
4.015687 99.7209 11.8872
4.047682 99.301 11.9418
4.079677 109.74 12.4983
4.111672 123.738 13.3725
4.143667 117.438 13.1021
4.175662 132.821 13.8176
4.207658 102.606 12.1013
4.239653 98.8341 11.9224
4.271648 113.976 12.783
4.303643 122.913 13.2379
4.335638 105.1 12.1871
4.367633 120.146 13.1908
4.399628 112.688 12.6825
4.431623 113.646 12.8084
4.463618 127.902 13.4988
4.495613 123.473 13.272
4.527608 134.67 13.8684
4.559603 132.431 13.5753
4.591598 120.034 13.013
4.623593 131.336 13.6661
4.655588 126.759 13.5252
4.687583 132.157 13.6742
4.719578 126.066 13.4263
4.751573 124.259 13.1904
4.783568 136.907 14.0101
4.815563 122.734 13.3371
4.847558 141.418 14.2493
4.879553 109.654 12.3457
4.911548 134.062 13.9172
4.943543 114.902 12.7615
4.975538 131.964 13.8243
5.007533 136.53 13.9247
5.039528 128.48 13.5817
5.071523 132.779 13.7585
5.103519 146.857 14.5063
5.135514 146.527 14.4225
5.167509 136.209 13.974
5.199504 137.086 14.053
5.231499 140.045 14.1576
5.263494 128.127 13.4469
5.295489 138.525 14.1471
5.327484 152.768 14.8076
5.359479 127.268 13.5122
5.391474 117.001 12.9394
5.423469 117.336 12.9851
5.455464 113.143 12.7256
5.487459 110.789 12.5761
5.519454 141.717 13.0089
5.551449 110.703 11.4425
5.583444 125.942 12.2911
5.615439 112.163 11.6322
5.647434 117.065 11.915
5.679429 101.22 10.9004
5.711424 121.158 11.9755
5.743419 109.76 11.3886
5.775414 122.022 12.1835
5.807409 121.536 12.0032
5.839404 98.9676 10.9405
5.871399 92.2929 10.461
5.903394 110.507 11.5178
5.935389 124.118 12.2957
5.967384 108.873 11.3953
5.999380 98.9345 10.777
6.031375 115.409 11.7647
6.063370 112.349 11.5836
6.095365 120.113 11.9092
6.127360 87.629 10.246
6.159355 98.7206 10.923
6.191350 106.576 11.2142
6.223345 91.8685 10.4387
6.255340 122.046 12.0962
6.287335 98.9343 10.8117
6.319330 105.639 11.2296
6.351325 115.305 11.7381
6.383320 143.612 13.0369
6.415315 152.507 13.4281
6.447310 225.182 16.4312
6.479305 501.952 24.4327
6.511300 3196.39 61.6825
6.543295 8965.51 103.553
6.575290 655.875 28.0428
6.607285 248.301 17.1815
6.639280 144.415 13.1264
6.671275 122.435 12.0418
6.703270 123.789 12.0299
6.735265 122.346 12.1904
6.767260 96.7442 10.7297
6.799255 114.604 11.6652
6.831250 109.225 11.3918
6.863246 83.8908 10.0006
6.895241 98.0026 10.7918
6.927236 107.405 11.3658
6.959231 110.194 11.4836
6.991226 103.366 11.0484
7.023221 89.6186 10.3291
7.055216 89.4665 10.2667
7.087211 93.5544 10.5467
7.119206 90.4951 10.3761
7.151201 92.2073 10.5094
7.183196 75.9914 9.419809
7.215191 90.0845 10.3707
7.247186 88.7687 10.2412
7.279181 97.4795 10.7968
7.311176 78.5832 9.637559
7.343171 86.0927 10.129
7.375166 83.6632 9.977585
7.407161 99.2189 10.9371
7.439156 96.4257 10.6377
7.471151 83.2661 10.0279
7.503146 89.5564 9.742629
7.535141 78.5473 9.055108
7.567136 82.8148 9.304684
7.599131 79.4721 9.084503
7.631126 69.3315 8.568802
7.663121 80.3399 9.103888
7.695116 82.7291 9.351835
7.727111 79.0837 8.967549
7.759107 74.6615 8.792828
7.791102 70.6306 8.603585
7.823097 79.6646 9.099015
7.855092 78.7671 9.045176
7.887087 70.2261 8.668564
7.919082 81.0089 9.191102
7.951077 78.6673 9.114593
7.983072 92.8396 9.900768
8.015067 81.2259 9.263039
8.047062 65.6 8.284704
8.079057 70.5709 8.619230
8.111052 83.3077 9.339867
8.143047 72.635 8.672905
8.175042 68.5307 8.500990
8.207037 72.9346 8.742270
8.239032 84.3775 9.378983
8.271027 92.4512 9.847050
8.303022 64.9819 8.262192
8.335017 66.3115 8.331310
8.367012 78.4224 9.173070
8.399007 70.8317 8.631195
8.431002 69.7663 8.567147
8.462997 77.4659 9.065021
8.494992 73.0992 8.751090
8.526987 81.2271 9.214381
8.558982 70.9011 8.631574
8.590977 86.6388 9.535507
8.622973 73.8713 8.780192
8.654968 91.3401 9.856354
8.686963 96.1422 10.0675
8.718958 119.664 11.2348
8.750953 121.612 11.3081
8.782948 166.486 13.2
8.814943 250.968 16.3421
8.846938 677.097 26.7369
8.878933 4077.56 65.5759
8.910928 21896.9 152.142
8.942923 1175.24 35.2718
8.974918 366.121 19.5738
9.006913 193.798 14.2591
9.038908 141.588 12.0906
9.070903 116.445 11.0113
9.102898 106.912 10.6505
9.134893 81.0662 9.116474
9.166888 87.6858 9.656108
9.198883 106.141 10.6167
9.230878 89.6669 9.721664
9.262873 86.6063 9.477472
9.294868 91.6086 9.837511
9.326863 97.3739 10.1287
9.358858 108.071 10.6087
9.390853 92.0743 9.753395
9.422848 131.151 11.6598
9.454843 151.217 12.6469
9.486838 233.463 15.7303
9.518834 664.977 24.6217
9.550829 5610.96 71.6227
9.582824 12162.6 105.602
9.614819 940.96 29.3926
9.646814 298.072 16.5798
9.678809 166.798 12.3614
9.710804 120.661 10.5462
9.742799 100.421 9.618568
9.774794 97.2821 9.442590
9.806789 76.8373 8.407184
9.838784 74.3791 8.216821
9.870779 74.0746 8.255270
9.902774 76.7335 8.285981
9.934769 78.1238 8.418859
9.966764 78.3935 8.562328
9.998759 63.3867 7.599813
10.0308 62.8763 7.606241
10.0627 70.22 7.986116
10.0947 64.4928 7.706768
10.1267 75.689 8.291497
10.1587 70.9904 8.090384
10.1907 74.1622 8.228300
10.2227 74.5455 8.238110
10.2547 72.3677 8.091663
10.2867 73.0045 8.108236
10.3187 68.6015 7.757693
10.3507 73.6887 8.211985
10.3827 77.097 8.283921
10.4147 109.939 9.996006
10.4467 250.943 15.0525
10.4787 2327.55 46.236
10.5107 173.563 12.547
10.5427 97.9232 9.435437
10.5747 72.1037 8.148451
10.6067 72.5754 8.170496
10.6387 79.7181 8.562486
10.6707 83.8292 8.662294
10.7027 72.1684 8.073540
10.7346 85.1699 8.805931
10.7666 93.7185 9.245512
10.7986 102.24 9.664662
10.8306 141.374 11.4285
10.8626 314.773 16.9973
10.8946 2469.22 47.5447
10.9266 4019.54 60.5654
10.9586 359.445 18.081
10.9906 159.111 12.0624
11.0226 102.75 9.560231
11.0546 88.3325 8.956880
11.0866 83.5004 8.708094
11.1186 76.8341 8.367342
11.1506 87.031 8.846483
11.1826 67.9964 7.838166
11.2146 55.9643 7.176565
11.2466 69.2895 7.974680
11.2786 65.3335 7.719422
11.3106 71.7197 8.038347
11.3426 65.1776 7.741905
11.3745 66.6909 7.770651
11.4065 56.1442 7.115606
11.4385 72.7201 8.194995
11.4705 77.6944 8.358452
11.5025 69.4471 7.543709
11.5345 111.2 9.564214
11.5665 221.14 13.5096
11.5985 2656.52 46.9687
11.6305 171.447 11.9105
11.6625 90.0617 8.644857
11.6945 79.5477 8.033633
11.7265 78.8557 8.150899
11.7585 80.0947 8.061154
11.7905 82.4538 8.217878
11.8225 74.2537 7.868455
11.8545 66.211 7.363065
11.8865 62.0021 7.098817
11.9185 67.3505 7.474912
11.9505 66.0855 7.401641
11.9825 76.8938 7.838976
12.0144 72.0881 7.722521
12.0464 66.3266 7.406092
12.0784 74.0786 7.825349
12.1104 65.3947 7.358617
12.1424 76.3406 7.874132
12.1744 62.313 7.135957
12.2064 66.6335 7.378215
12.2384 66.4007 7.375754
12.2704 78.7259 8.009465
12.3024 74.0223 7.795246
12.3344 67.3296 7.465955
12.3664 75.2653 7.782515
12.3984 66.2007 7.390043
12.4304 75.3033 7.851985
12.4624 64.3254 7.258662
12.4944 73.1231 7.791273
12.5264 82.2191 8.242356
12.5584 60.9006 7.031583
12.5904 76.9648 7.962334
12.6224 66.9897 7.436806
12.6543 74.007 7.853695
12.6863 69.4022 7.616899
12.7183 71.1817 7.602583
12.7503 92.3709 8.757275
12.7823 81.7266 8.075156
12.8143 82.8822 8.193901
12.8463 81.3499 8.250982
12.8783 90.3769 8.578123
12.9103 88.1304 8.513236
12.9423 105.915 9.359450
12.9743 106.535 9.407969
13.0063 194.677 12.7135
13.0383 499.37 20.3555
13.0703 5174.14 65.4771
13.1023 3339.11 52.596
13.1343 436.511 19.0208
13.1663 189.979 12.5354
13.1983 106.098 9.364791
13.2303 109.619 9.493358
13.2623 73.2415 7.738737
13.2942 79.0697 8.095623
13.3262 80.6124 8.217355
13.3582 84.6662 8.402688
13.3902 74.3975 7.772095
13.4222 85.5163 8.336298
13.4542 74.15 7.842477
13.4862 76.519 7.923760
13.5182 71.9419 7.269381
13.5502 75.9409 7.499193
13.5822 75.253 7.525247
13.6142 82.5926 7.811649
13.6462 68.9272 7.116372
13.6782 78.4133 7.616980
13.7102 77.1279 7.642414
13.7422 83.3808 7.859771
13.7742 88.3633 8.055651
13.8062 86.5775 8.033375
13.8382 77.1046 7.570729
13.8702 87.1775 8.084182
13.9022 93.2702 8.324292
13.9341 85.8111 7.903008
13.9661 113.322 9.213701
13.9981 105.202 8.801042
14.0301 124.515 9.654317
14.0621 139.7 10.1536
14.0941 192.165 12.0262
14.1261 367.849 16.6489
14.1581 1073.76 28.3781
14.1901 10921.1 90.5558
14.2221 10718.6 89.6632
14.2541 1058.96 28.116
14.2861 341.009 16.0005
14.3181 197.801 12.1076
14.3501 139.016 10.2225
14.3821 106.827 8.914074
14.4141 110.246 9.075850
14.4461 88.2503 8.103862
14.4781 79.4351 7.739116
14.5101 101.013 8.671708
14.5421 95.7742 8.397006
14.574 93.4641 8.325421
14.606 80.3495 7.738019
14.638 82.6053 7.856072
14.67 69.2042 7.136531
14.702 89.9927 8.215842
14.734 228.096 13.0638
14.766 146.546 10.3664
14.798 81.0901 7.798396
14.83 77.8508 7.655750
14.862 78.9889 7.679355
14.894 87.7491 8.143391
14.926 82.0513 7.753259
14.958 93.2838 8.344049
14.99 130.902 9.960246
15.022 390.763 17.1151
15.054 3944.39 54.4547
15.086 326.467 15.647
15.118 121.623 9.540040
15.15 67.2277 7.025989
15.182 75.5445 7.477231
15.214 69.56 7.150921
15.2459 77.5171 7.537218
15.2779 80.0442 7.727766
15.3099 73.3149 7.405943
15.3419 69.6936 7.198874
15.3739 70.0092 7.277105
15.4059 76.9627 7.615313
15.4379 69.8261 7.133395
15.4699 76.3095 7.555684
15.5019 76.8772 7.235888
15.5339 71.837 7.011612
15.5659 68.9687 6.891533
15.5979 74.4077 7.086587
15.6299 76.6496 7.215007
15.6619 77.5341 7.249263
15.6939 68.025 6.694715
15.7259 79.7348 7.345433
15.7579 76.2524 7.193949
15.7899 73.3016 7.046230
15.8219 76.2426 7.120229
15.8539 80.3683 7.327914
15.8858 82.6233 7.457297
15.9178 70.0171 6.921561
15.9498 75.6381 7.205897
15.9818 79.6491 7.338498
16.0138 80.1916 7.351605
16.0458 102.197 8.320671
16.0778 106.603 8.487343
16.1098 113.251 8.794450
16.1418 147.569 10.0996
16.1738 326.379 14.9997
16.2058 1358.41 30.4873
16.2378 17134.8 108.496
16.2698 971.942 25.8085
16.3018 264.243 13.4085
16.3338 147.391 10.0573
16.3658 126.592 9.236561
16.3978 125.102 9.264765
16.4298 112.841 8.819342
16.4618 117.747 8.966597
16.4938 141.684 9.809927
16.5257 189.967 11.4323
16.5577 406.227 16.6553
16.5897 2432.09 40.8092
16.6217 15411.4 102.83
16.6537 1016.73 26.3911
16.6857 279.094 13.7908
16.7177 144.321 9.894555
16.7497 116.445 8.908916
16.7817 101.014 8.393970
16.8137 98.832 8.157795
16.8457 86.8859 7.717542
16.8777 72.6802 7.052438
16.9097 81.5175 7.447432
16.9417 86.2583 7.681260
16.9737 76.794 7.187521
17.0057 90.8162 7.907529
17.0377 87.9834 7.737532
17.0697 311.654 14.5455
17.1017 79.6819 7.374214
17.1337 82.9927 7.433829
17.1656 80.5946 7.329775
17.1976 70.5767 6.926871
17.2296 71.5954 7.001966
17.2616 84.8266 7.647332
17.2936 64.8641 6.630318
17.3256 76.6566 7.181663
17.3576 76.1654 7.195952
17.3896 73.658 7.074075
17.4216 71.2254 6.972206
17.4536 76.1083 7.194827
17.4856 75.461 7.240224
17.5176 70.812 6.945182
17.5496 80.1714 7.378949
17.5816 65.7327 6.694441
17.6136 70.9288 6.959541
17.6456 81.1867 7.427785
17.6776 72.0346 7.011377
17.7096 76.6584 7.239582
17.7416 81.0203 7.458247
17.7736 73.9301 7.110923
17.8055 70.4756 6.923128
17.8375 91.978 7.865443
17.8695 126.803 9.292340
17.9015 79.2363 7.326883
17.9335 80.8877 7.376838
17.9655 69.9716 6.872318
17.9975 84.9548 7.594977
18.0295 69.0165 6.846710
18.0615 77.5587 7.185667
18.0935 69.9045 6.837005
18.1255 83.7085 7.576615
18.1575 75.4136 7.141013
18.1895 80.0295 7.367432
18.2215 87.905 7.704396
18.2535 108.733 8.591922
18.2855 160.123 10.4334
18.3175 335.508 15.1892
18.3495 2786.32 43.6851
18.3815 2134.93 38.2767
18.4135 356.149 15.6268
18.4454 1311.26 29.9434
18.4774 279.591 13.8557
18.5094 103.178 8.369413
18.5414 81.5296 7.398678
18.5734 86.9607 7.637620
18.6054 83.888 7.583926
18.6374 61.3059 6.467604
18.6694 69.6461 6.862687
18.7014 81.6107 7.451865
18.7334 70.0155 6.839806
18.7654 79.755 7.395631
18.7974 70.5864 6.904168
18.8294 71.9826 6.957399
18.8614 58.077 6.251700
18.8934 72.3165 7.020213
18.9254 71.2694 6.977953
18.9574 73.6493 7.086969
18.9894 76.7149 7.212241
19.0214 79.3181 7.352075
19.0534 95.4755 8.063355
19.0853 97.1655 8.162224
19.1173 234.919 12.6619
19.1493 182.863 11.1093
19.1813 618.764 20.6265
19.2133 4119.49 53.1583
19.2453 323.664 14.8682
19.2773 132.594 9.532005
19.3093 98.594 8.155306
19.3413 80.8133 7.472315
19.3733 79.4764 7.400814
19.4053 80.2226 7.386453
19.4373 84.164 7.555394
19.4693 71.9718 6.959294
19.5013 73.8786 7.123689
19.5333 86.7746 7.632834
19.5653 83.7866 7.524703
19.5973 108.268 8.650765
19.6293 178.78 11.0633
19.6613 762.271 22.8633
19.6933 1489.04 31.9626
19.7252 193.658 11.5449
19.7572 110.105 8.626731
19.7892 95.2557 8.081794
19.8212 93.0224 7.936074
19.8532 88.9857 7.787705
19.8852 138.245 9.721919
19.9172 869.942 24.3753
19.9492 164.237 10.595
19.9812 85.6702 7.642869
20.0132 86.4803 7.641241
20.0452 77.9111 7.198849
20.0772 125.393 9.234067
20.1092 86.6186 7.709619
20.1412 82.9978 7.493912
20.1732 84.5482 7.601872
20.2052 88.9481 7.745158
20.2372 111.718 8.748014
20.2692 208.968 11.9789
20.3012 1718.67 34.4401
20.3332 374.241 15.9438
20.3652 129.472 9.413228
20.3971 92.4457 7.978886
20.4291 82.5014 7.471982
20.4611 85.0557 7.636320
20.4931 71.5962 6.995469
20.5251 76.8296 7.204433
20.5571 84.3596 7.603204
20.5891 76.4857 7.187997
20.6211 97.4217 8.063209
20.6531 99.8314 8.217373
20.6851 149.68 10.0771
20.7171 475.014 18.0776
20.7491 4569.1 56.0707
20.7811 356.463 15.5526
20.8131 128.147 9.382264
20.8451 94.6444 8.002926
20.8771 81.4673 7.480341
20.9091 85.8105 7.642095
20.9411 94.3011 8.023489
20.9731 85.1339 7.584352
21.0051 164.478 10.6512
21.037 1224.05 28.9977
21.069 178.33 11.0213
21.101 120.847 9.049596
21.133 132.064 9.538605
21.165 298.319 14.3058
21.197 2708.2 43.0756
21.229 774.667 23.0816
21.261 180.843 11.1187
21.293 103.777 8.457902
21.325 83.8955 7.497616
21.357 78.3226 7.215266
21.389 80.1833 7.394965
21.421 85.8077 7.639435
21.453 80.6121 7.352137
21.485 85.5191 7.608048
21.517 89.21 7.754129
21.549 92.5492 7.925483
21.581 73.1074 6.976378
21.613 77.4497 7.176450
21.645 84.5386 7.584672
21.6769 83.9564 7.552047
21.7089 85.9108 7.625086
21.7409 79.4415 7.357703
21.7729 88.0695 7.762365
21.8049 100.775 8.291180
21.8369 141.5 9.816588
21.8689 281.369 13.8916
21.9009 1162.91 28.2066
21.9329 6243.49 65.4624
21.9649 531.581 19.1139
21.9969 190.129 11.4105
22.0289 115.739 8.891664
22.0609 103.554 8.381684
22.0929 86.3205 7.715566
22.1249 82.5886 7.538532
22.1569 79.7267 7.412195
22.1889 80.2412 7.350868
22.2209 78.1155 7.243773
22.2529 76.452 7.182663
22.2849 85.1779 7.587552
22.3168 87.4549 7.693981
22.3488 72.4158 6.999452
22.3808 82.4261 7.512868
22.4128 85.406 7.606530
22.4448 97.9633 8.140190
22.4768 306.062 14.488
22.5088 362.774 15.7822
22.5408 117.516 8.964563
22.5728 92.9919 7.966825
22.6048 80.3701 7.359579
22.6368 82.0356 7.489257
22.6688 81.0672 7.377725
22.7008 88.0029 7.743962
22.7328 84.4257 7.508109
22.7648 95.614 8.049548
22.7968 108.599 8.627767
22.8288 182.428 11.2193
22.8608 617.872 20.5568
22.8928 6842.52 68.5279
22.9248 572.332 19.7602
22.9567 194.223 11.5319
22.9887 109.801 8.587924
23.0207 99.834 8.272129
23.0527 90.8211 7.892595
23.0847 89.8589 7.831327
23.1167 111.281 8.743427
23.1487 553.69 19.4626
23.1807 190.362 11.3911
23.2127 107.894 8.568858
23.2447 101.985 8.366563
23.2767 177.758 11.0431
23.3087 1316.43 30.0641
23.3407 207.918 11.8734
23.3727 97.9595 8.187387
23.4047 80.922 7.433619
23.4367 77.5312 7.246674
23.4687 78.486 7.350296
23.5007 90.7169 7.879978
23.5327 74.1802 7.045945
23.5647 66.5894 6.704735
23.5966 78.1132 7.294691
23.6286 71.8516 7.004565
23.6606 80.5139 7.420448
23.6926 71.1251 6.937142
23.7246 81.7822 7.442276
23.7566 71.1937 6.985499
23.7886 66.8243 6.638510
23.8206 74.0723 7.104681
23.8526 68.582 6.841909
23.8846 74.6967 7.104110
23.9166 68.6624 6.821198
23.9486 71.3147 6.996620
23.9806 78.0921 7.334847
24.0126 68.6214 6.827676
24.0446 74.5949 7.064745
24.0766 75.2573 7.120992
24.1086 56.5722 6.183350
24.1406 72.9104 6.958837
24.1726 72.4084 7.004443
24.2046 69.7363 6.880721
24.2366 63.7201 6.537187
24.2685 90.2191 7.861825
24.3005 151.467 10.1744
24.3325 80.6779 7.407272
24.3645 75.6019 7.178265
24.3965 81.5782 7.455476
24.4285 91.2262 7.896042
24.4605 146.458 9.990627
24.4925 637.77 20.888
24.5245 127.389 9.291112
24.5565 83.2707 7.553733
24.5885 66.7511 6.692646
24.6205 75.9005 7.187221
24.6525 74.5132 7.183085
24.6845 81.6207 7.412710
24.7165 67.1657 6.700616
24.7485 67.8225 6.727971
24.7805 75.8922 7.141293
24.8125 85.1095 7.590377
24.8445 79.0563 7.263619
24.8765 90.9777 7.851130
24.9084 128.527 9.342229
24.9404 215.539 12.1357
24.9724 90.5748 7.826301
25.0044 90.51 7.858835
25.0364 76.2967 7.158853
25.0684 79.1212 7.308651
25.1004 81.1303 7.379974
25.1324 96.3867 7.991274
25.1644 131.717 9.467055
25.1964 316.042 14.6846
25.2284 1647.3 33.6422
25.2604 2190.69 38.7398
25.2924 283.886 13.9035
25.3244 146.5 10.0059
25.3564 99.9898 8.191067
25.3884 97.67 8.175793
25.4204 135.858 9.656638
25.4524 220.544 12.3007
25.4844 1096.27 27.3989
25.5164 1272.09 29.5141
25.5483 218.654 12.2046
25.5803 111.256 8.705089
25.6123 89.1764 7.804998
25.6443 93.5086 7.967335
25.6763 91.3502 7.939774
25.7083 85.8718 7.646113
25.7403 65.1544 6.671740
25.7723 74.3348 7.117500
25.8043 118.849 9.011527
25.8363 73.696 7.099789
25.8683 75.6808 7.247150
25.9003 77.8187 7.252587
25.9323 87.6526 7.773121
25.9643 83.4417 7.578545
25.9963 81.1036 7.414506
26.0283 146.134 9.979251
26.0603 278.913 13.8475
26.0923 100.036 8.280425
26.1243 83.2399 7.495622
26.1563 84.3868 7.614196
26.1882 89.3055 7.811775
26.2202 86.2122 7.649200
26.2522 74.4902 7.122637
26.2842 81.1745 7.384224
26.3162 104.931 8.468068
26.3482 260.495 13.3451
26.3802 100.023 8.295913
26.4122 81.021 7.413867
26.4442 87.1415 7.680387
26.4762 83.0793 7.531442
26.5082 74.0979 7.159258
26.5402 89.816 7.850743
26.5722 84.3236 7.555507
26.6042 118.019 8.982939
26.6362 176.413 10.9789
26.6682 571.697 19.733
26.7002 3927 51.9418
26.7322 385.256 16.2436
26.7642 160.021 10.4533
26.7962 113.692 8.771074
26.8281 99.7038 8.197118
26.8601 132.981 9.442690
26.8921 251.315 13.0824
26.9241 2291.53 39.644
26.9561 320.433 14.8777
26.9881 157.726 10.3409
27.0201 383.444 16.1903
27.0521 392.581 16.4162
27.0841 123.408 9.123905
27.1161 104.553 8.423688
27.1481 80.2873 7.349027
27.1801 83.8971 7.586928
27.2121 108.915 8.658889
27.2441 89.7523 7.792303
27.2761 75.1936 7.099668
27.3081 91.1749 7.839693
27.3401 82.3633 7.461874
27.3721 74.57 7.095878
27.4041 82.5998 7.478480
27.4361 101.393 8.259142
27.468 94.9164 8.002878
27.5 105.187 8.525246
27.532 118.83 8.954324
27.564 185.197 11.2871
27.596 470.677 17.926
27.628 4267.69 54.0746
27.66 1157.52 28.1626
27.692 279.267 13.8017
27.724 147.519 10.0347
27.756 99.8376 8.226240
27.788 93.913 7.995393
27.82 100.568 8.280404
27.852 95.6141 8.091187
27.884 89.4478 7.806258
27.916 86.2664 7.625295
27.948 81.2504 7.420771
27.98 87.5237 7.720693
28.012 86.4042 8.026856
28.044 98.4495 8.532033
28.076 124.057 9.582594
28.1079 209 12.4304
28.1399 157.795 10.7647
28.1719 98.0018 8.505168
28.2039 87.9795 8.066484
28.2359 99.0498 8.503403
28.2679 94.8779 8.394064
28.2999 80.7175 7.712279
28.3319 102.945 8.692467
28.3639 141.721 10.2775
28.3959 403.903 17.3285
28.4279 1277.84 30.8143
28.4599 247.233 13.5976
28.4919 121.986 9.501199
28.5239 92.468 8.257345
28.5559 83.7077 7.843945
28.5879 110.053 9.047606
28.6199 186.14 11.7289
28.6519 204.976 12.3945
28.6839 198.093 12.0893
28.7159 659.334 22.1975
28.7478 1793.37 36.4975
28.7798 590.681 20.9694
28.8118 168.587 11.2297
28.8438 103.047 8.710025
28.8758 109.079 9.001325
28.9078 120.188 9.390883
28.9398 193.241 11.9796
28.9718 893.051 25.7314
29.0038 659.724 22.1271
29.0358 170.566 11.2872
29.0678 99.4775 8.549325
29.0998 100.242 8.642234
29.1318 79.3387 7.616356
29.1638 94.6483 8.401574
29.1958 82.8204 7.835375
29.2278 99.2722 8.564038
29.2598 80.1618 7.691632
29.2918 81.3088 7.747611
29.3238 74.4023 7.387470
29.3558 72.4728 7.368850
29.3878 76.3941 7.460379
29.4197 81.2806 7.771446
29.4517 81.6023 7.770872
29.4837 81.7637 7.749897
29.5157 77.0514 7.520413
29.5477 73.9497 7.418315
29.5797 108.436 8.960490
29.6117 88.5577 8.078077
29.6437 88.3047 8.063292
29.6757 84.4396 7.840171
29.7077 107.192 8.977206
29.7397 284.12 14.5066
29.7717 121.769 9.452744
29.8037 89.5962 8.138809
29.8357 80.3266 7.705192
29.8677 81.1082 7.756271
29.8997 76.8191 7.547454
29.9317 91.0467 8.192971
29.9637 87.37 8.031887
29.9957 129.926 10.2775
30.0277 393.251 17.9184
30.0596 1373.3 33.5113
30.0916 296.213 15.5332
30.1236 196.015 12.6219
30.1556 101.56 9.079258
30.1876 85.6221 8.396598
30.2196 96.6381 8.854462
30.2516 90.8127 8.572385
30.2836 111.393 9.538291
30.3156 210.429 12.9698
30.3476 1234.21 31.6944
30.3796 1476.72 34.7465
30.4116 253.598 14.4711
30.4436 117.157 9.741055
30.4756 88.2558 8.447094
30.5076 90.4881 8.527047
30.5396 75.2227 7.848059
30.5716 76.7519 7.993312
30.6036 92.2817 8.615045
30.6356 68.1928 7.421037
30.6676 71.7712 7.603055
30.6995 77.6339 7.875270
30.7315 84.4829 8.320456
30.7635 75.2681 7.774822
30.7955 81.8224 8.085642
30.8275 93.0949 8.695053
30.8595 146.253 10.9051
30.8915 648.65 22.9736
30.9235 201.935 12.8618
30.9555 108.267 9.394856
30.9875 84.9647 8.322215
31.0195 71.3764 7.621093
31.0515 77.4345 7.989505
31.0835 73.6112 7.734305
31.1155 88.7093 8.476446
31.1475 113.583 9.634019
31.1795 96.409 8.880558
31.2115 88.0397 8.426817
31.2435 75.4766 7.811930
31.2755 83.091 8.267855
31.3075 184.778 12.2867
31.3394 94.2515 8.742648
31.3714 75.1435 7.778104
31.4034 74.7305 7.776377
31.4354 77.9396 8.001138
31.4674 75.3181 7.881737
31.4994 86.273 8.354849
31.5314 84.9784 8.417212
31.5634 82.281 8.161309
31.5954 72.233 7.688777
31.6274 64.953 7.316094
31.6594 78.9558 8.008763
31.6914 83.8529 8.242404
31.7234 67.5106 7.505889
31.7554 83.7135 8.218190
31.7874 129.556 10.2308
31.8194 128.6 10.2258
31.8514 222.403 13.5011
31.8834 1351.73 33.3007
31.9154 1689.46 37.1933
31.9474 390.656 17.8573
31.9793 163.574 11.5404
32.0113 105.624 9.742569
32.0433 90.5087 8.993832
32.0753 108.7 9.898552
32.1073 87.6287 8.847582
32.1393 80.4143 8.533381
32.1713 83.0864 8.618468
32.2033 80.9075 8.449708
32.2353 80.7711 8.546945
32.2673 93.192 9.178691
32.2993 79.8122 8.423304
32.3313 79.6885 8.502752
32.3633 114.186 10.1751
32.3953 94.6696 9.343713
32.4273 60.5668 7.340474
32.4593 78.3406 8.419509
32.4913 81.8352 8.627652
32.5233 83.3698 8.750181
32.5553 76.367 8.319462
32.5873 75.6892 8.283777
32.6193 71.4751 8.028557
32.6512 72.2915 8.115542
32.6832 86.7027 8.870072
32.7152 62.9188 7.560070
32.7472 79.6201 8.538895
32.7792 82.1287 8.618703
32.8112 125.152 10.6836
32.8432 163.072 12.0729
32.8752 69.5452 7.873066
32.9072 76.9691 8.296412
32.9392 89.2901 9.077702
32.9712 78.9704 8.446376
33.0032 86.2854 8.874598
33.0352 93.2922 9.127287
33.0672 140.423 11.2291
33.0992 674.826 24.7037
33.1312 128.559 10.7359
33.1632 85.5271 8.739712
33.1952 80.8609 8.526581
33.2272 94.2351 9.193126
33.2591 166.017 12.2488
33.2911 464.944 20.5852
33.3231 113.319 10.0687
33.3551 125.66 10.6054
33.3871 221.466 14.1573
33.4191 83.6616 8.634632
33.4511 84.2019 8.793660
33.4831 98.372 9.396946
33.5151 124.136 10.5642
33.5471 171.438 12.4826
33.5791 529.952 21.9865
33.6111 401.488 19.074
33.6431 141.814 11.2823
33.6751 90.6465 9.053274
33.7071 77.4978 8.412003
33.7391 88.3764 8.870285
33.7711 81.302 8.585030
33.8031 85.4438 8.797400
33.8351 78.2271 8.385498
33.8671 86.3315 8.841355
33.8991 79.1253 8.497836
33.931 89.7138 8.952871
33.963 64.7284 7.635130
33.995 72.215 8.487510
34.027 74.6075 8.547511
34.059 78.4391 8.816738
34.091 69.8141 8.416121
34.123 78.1627 8.873599
34.155 94.8494 9.657746
34.187 83.0682 9.066058
34.219 105.819 10.2373
34.251 324.471 18.0023
34.283 147.988 12.1704
34.315 87.9353 9.297502
34.347 85.6896 9.367331
34.379 72.3163 8.502973
34.411 80.5078 8.913052
34.443 87.7079 9.429337
34.475 133.38 11.5553
34.507 297.398 17.253
34.539 985.394 31.4073
34.5709 181.294 13.4855
34.6029 114.926 10.8219
34.6349 100.256 10.1328
34.6669 93.3115 9.708294
34.6989 95.2425 9.803136
34.7309 119.113 10.9428
34.7629 257.706 16.1136
34.7949 1638.02 40.5738
34.8269 696.355 26.5826
34.8589 178.364 13.3774
34.8909 111.671 10.5761
34.9229 109.465 10.4518
34.9549 141.738 12.0096
34.9869 336.99 18.3552
35.0189 619.106 24.942
35.0509 153.49 12.3769
35.0829 98.0247 9.901838
35.1149 104.193 10.2909
35.1469 85.2353 9.257302
35.1789 81.1754 8.900219
35.2108 108.612 10.469
35.2428 109.903 10.5459
35.2748 445.898 21.1537
35.3068 166.791 12.8969
35.3388 84.8531 9.204967
35.3708 82.0005 9.054041
35.4028 92.3644 9.576682
35.4348 104.082 10.1888
35.4668 84.3435 9.153635
35.4988 91.1654 9.557184
35.5308 71.6574 8.422257
35.5628 85.8529 9.334537
35.5948 90.4705 9.574238
35.6268 79.9561 9.004789
35.6588 73.7429 8.514127
35.6908 76.5652 8.781686
35.7228 88.1477 9.439057
35.7548 83.9848 9.196031
35.7868 82.7555 8.978546
35.8188 103.094 10.1113
35.8507 164.479 12.8604
35.8827 684.458 26.1502
35.9147 1025.67 32.0672
35.9467 200.844 14.1895
35.9787 112.514 10.6213
36.0107 94.1522 10.2348
36.0427 126.902 11.9499
36.0747 394.094 21.0317
36.1067 310.533 18.5721
36.1387 164.284 13.5222
36.1707 410.747 21.4107
36.2027 118.575 11.4873
36.2347 71.0724 8.804280
36.2667 86.9313 9.820304
36.2987 86.5746 9.809659
36.3307 83.4017 9.642795
36.3627 67.7147 8.727445
36.3947 78.0321 9.386340
36.4267 83.0441 9.685627
36.4587 67.9622 8.702561
36.4906 88.9385 9.871707
36.5226 90.4548 10.0436
36.5546 110.022 11.0708
36.5866 185.83 14.2846
36.6186 593.621 25.6593
36.6506 1097.81 34.913
36.6826 223.092 15.7552
36.7146 125.697 11.716
36.7466 83.8808 9.592065
36.7786 102.473 10.5808
36.8106 87.7279 9.788244
36.8426 100.804 10.5759
36.8746 74.3955 9.072897
36.9066 77.9557 9.230692
36.9386 94.7074 10.1241
36.9706 160.84 13.4796
37.0026 326.441 19.0453
37.0346 150.363 12.9497
37.0666 89.7386 9.992501
37.0986 87.169 9.837110
37.1305 84.5191 9.663027
37.1625 91.186 10.0854
37.1945 157.562 13.3379
37.2265 417.545 21.5634
37.2585 129.159 11.9734
37.2905 94.4361 10.147
37.3225 88.4095 9.791728
37.3545 96.2739 10.4124
37.3865 89.0735 9.961915
37.4185 107.961 10.9921
37.4505 149.983 12.9139
37.4825 550.878 24.8116
37.5145 902.119 31.6531
37.5465 278.879 17.6537
37.5785 118.528 11.5539
37.6105 90.0947 10.0078
37.6425 82.8883 9.471114
37.6745 76.0947 9.108659
37.7065 90.6297 10.0445
37.7385 80.9242 9.518191
37.7705 86.9649 9.889461
37.8024 74.1009 9.069417
37.8344 65.1466 8.385876
37.8664 65.5831 8.519914
37.8984 71.5797 8.924961
37.9304 68.2318 8.661714
37.9624 71.5592 8.943100
37.9944 74.7027 9.808947
38.0264 69.7076 9.494708
38.0584 82.2191 10.3096
38.0904 69.8235 9.515807
38.1224 65.461 9.133042
38.1544 65.6162 9.133021
38.1864 74.6509 9.803923
38.2184 77.9624 10.1022
38.2504 68.1726 9.341426
38.2824 69.745 9.509053
38.3144 86.0617 10.6315
38.3464 83.5172 10.5163
38.3784 86.1342 10.4383
38.4104 99.8693 11.4336
38.4423 97.4454 11.2112
38.4743 154.948 14.3002
38.5063 451.044 24.3662
38.5383 887.107 33.8984
38.5703 482.251 25.1613
38.6023 176.497 15.0781
38.6343 90.5692 10.8911
38.6663 80.3372 10.1912
38.6983 97.3454 11.3062
38.7303 83.273 10.5133
38.7623 126.464 12.8197
38.7943 396.027 22.7451
38.8263 132.511 13.292
38.8583 84.029 10.5489
38.8903 101.573 11.5244
38.9223 117.129 12.2083
38.9543 133.876 13.2322
38.9863 415.197 23.3156
39.0183 125.69 12.8136
39.0503 82.6359 10.3339
39.0822 76.6554 9.960253
39.1142 75.5304 9.856698
39.1462 75.6808 9.897927
39.1782 77.4524 10.0254
39.2102 76.8377 10.0198
39.2422 71.8425 9.594514
39.2742 70.7938 9.480082
39.3062 72.929 9.734980
39.3382 81.835 10.4209
39.3702 88.2375 10.7617
39.4022 76.8686 10.0245
39.4342 88.6267 10.7677
39.4662 69.6159 9.647193
39.4982 106.283 11.808
39.5302 226.137 17.096
39.5622 237.215 17.7059
39.5942 148.046 13.9685
39.6262 83.3085 10.5197
39.6582 81.981 10.2979
39.6902 69.3429 9.342736
39.7221 67.5415 9.305589
39.7541 63.3171 9.055695
39.7861 78.7351 10.1967
39.8181 74.926 9.851959
39.8501 88.1548 10.7903
39.8821 81.8971 10.3661
39.9141 93.558 11.0255
39.9461 133.377 13.1385
39.9781 417.904 23.2036
40.0101 215.874 18.6558
40.0421 826.858 36.3419
40.0741 695.539 33.3769
40.1061 198.875 17.9515
40.1381 111.349 13.2742
40.1701 74.9845 10.8712
40.2021 73.5534 10.8602
40.2341 88.8735 11.8799
40.2661 52.8945 9.104743
40.2981 75.261 10.914
40.3301 68.4926 10.3954
40.362 94.1291 12.1673
40.394 73.8123 10.8435
40.426 116.204 13.747
40.458 257.287 20.3111
40.49 373.944 24.4612
40.522 116.673 13.6537
40.554 101.219 12.7244
40.586 97.8977 12.4336
40.618 84.5109 11.7327
40.65 81.8133 11.4875
40.682 107.481 13.133
40.714 93.6846 12.2358
40.746 122.411 14.076
40.778 130.03 14.4426
40.81 116.076 13.6107
40.842 91.5084 12.1382
40.874 97.854 12.6439
40.906 72.7282 10.848
40.938 89.6543 12.0002
40.97 139.156 14.9287
41.0019 487.578 27.9268
41.0339 814.67 36.0438
41.0659 286.39 21.3479
41.0979 143.306 15.2046
41.1299 106.265 13.1077
41.1619 118.561 13.7128
41.1939 258.986 20.3602
41.2259 153.208 15.7225
41.2579 402.773 25.3385
41.2899 708.674 33.8343
41.3219 161.085 15.9221
41.3539 127.612 14.2503
41.3859 99.4092 12.6181
41.4179 75.8907 11.059
41.4499 84.1885 11.6726
41.4819 78.6339 11.1057
41.5139 68.093 10.4319
41.5459 82.5013 11.471
41.5779 71.2648 10.7738
41.6099 80.2718 11.313
41.6418 85.0335 11.6508
41.6738 103.037 12.8341
41.7058 57.204 9.705321
41.7378 60.2267 9.875679
41.7698 68.6562 10.4742
41.8018 50.9845 9.010456
41.8338 57.0966 9.380547
41.8658 86.3531 11.7393
41.8978 73.4598 10.7805
41.9298 86.3479 11.7469
41.9618 248.257 19.9214
41.9938 139.87 16.6611
42.0258 89.8699 13.2584
42.0578 77.0941 12.2465
42.0898 85.3433 12.9027
42.1218 84.5263 12.8639
42.1538 95.968 13.6369
42.1858 137.599 16.3619
42.2178 381.184 27.3498
42.2498 155.476 17.4279
42.2818 98.6166 13.8343
42.3137 91.9596 13.241
42.3457 88.7925 13.1805
42.3777 90.9361 13.3465
42.4097 119.529 15.2422
42.4417 239.875 21.5927
42.4737 549.462 32.6729
42.5057 137.41 16.4458
42.5377 97.8111 13.8555
42.5697 93.5822 13.3484
42.6017 138.755 16.5589
42.6337 342.917 25.7908
42.6657 194.793 19.4332
42.6977 94.5522 13.5784
42.7297 92.5229 13.5732
42.7617 76.9646 12.3876
42.7937 76.7137 12.2843
42.8257 102.822 14.1608
42.8577 61.8921 10.9071
42.8897 55.7331 10.2425
42.9217 69.4179 11.5621
42.9536 69.4403 11.5917
42.9856 86.2991 12.7473
43.0176 73.2399 11.8492
43.0496 65.5022 11.1584
43.0816 74.3663 12.0852
43.1136 66.0385 11.3844
43.1456 77.2897 12.4051
43.1776 72.7837 11.76
43.2096 53.3623 10.2692
43.2416 71.3404 11.6998
43.2736 81.3169 12.5652
43.3056 81.0842 12.6268
43.3376 102.447 14.0036
43.3696 238.146 21.5347
43.4016 676.888 36.2216
43.4336 430.34 28.9313
43.4656 161.837 17.6059
43.4976 82.6776 12.7572
43.5296 84.7239 12.819
43.5616 90.6825 13.3331
43.5935 73.3335 11.7867
43.6255 67.1391 11.3688
43.6575 64.044 11.3199
43.6895 87.6051 13.1499
43.7215 67.8037 11.5422
43.7535 83.5569 12.7226
43.7855 73.9417 12.0635
43.8175 62.6142 11.1219
43.8495 68.6904 11.478
43.8815 71.0665 11.6137
43.9135 83.3162 12.6888
43.9455 101.728 14.0101
43.9775 269.937 22.8607
44.0095 340.691 30.525
44.0415 822.234 47.3526
44.0735 166.607 21.2955
44.1055 110.089 17.1372
44.1375 68.755 13.6163
44.1695 80.7411 14.8302
44.2015 85.3633 15.0731
44.2334 115.944 17.7388
44.2654 110.716 17.2733
44.2974 300.715 28.6877
44.3294 159.083 20.9506
44.3614 106.275 16.9794
44.3934 89.7456 15.5877
44.4254 76.0016 14.4314
44.4574 71.9852 13.8717
44.4894 70.749 13.7538
44.5214 118.059 17.8521
44.5534 255.956 26.496
44.5854 194.517 23.0912
44.6174 114.572 17.6471
44.6494 72.4561 13.8435
44.6814 114.123 17.5478
44.7134 192.663 22.8712
44.7454 165.794 21.2913
44.7774 555.753 38.9595
44.8094 308.189 28.9929
44.8414 114.203 17.554
44.8733 105.726 16.9653
44.9053 130.243 18.7861
44.9373 387.96 32.5554
44.9693 251.201 26.0372
45.0013 114.784 17.6188
45.0333 94.9269 16.1396
45.0653 51.3137 11.6656
45.0973 71.3063 13.8342
45.1293 89.1819 15.5966
45.1613 58.7326 12.5651
45.1933 81.5647 14.7978
45.2253 68.3099 13.6054
45.2573 56.6123 12.2657
45.2893 63.3604 13.1145
45.3213 83.4666 15.0793
45.3533 77.3186 14.4418
45.3853 74.0202 14.0796
45.4173 136.067 19.2106
45.4493 111.453 17.2741
45.4813 67.5492 13.6591
45.5132 70.816 13.7438
45.5452 54.6005 12.2122
45.5772 49.4956 11.4168
45.6092 54.5839 11.9588
45.6412 94.7677 16.0213
45.6732 202.717 23.4253
45.7052 105.283 16.6268
45.7372 76.2331 14.2308
45.7692 53.9871 11.9476
45.8012 75.0983 14.1835
45.8332 54.4214 12.056
45.8652 75.2769 14.3367
45.8972 122.007 18.1488
45.9292 132.134 18.9965
45.9612 80.0199 14.7441
45.9932 96.893 19.4881
46.0252 87.8743 18.3565
46.0572 69.3414 16.5
46.0892 94.3704 19.193
46.1212 65.4378 16.002
46.1531 86.6539 18.3925
46.1851 68.5535 16.3947
46.2171 114.335 21.1682
46.2491 167.258 25.6008
46.2811 357.139 37.433
46.3131 154.224 24.5909
46.3451 79.0801 17.5543
46.3771 55.6086 14.7185
46.4091 77.9286 17.3176
46.4411 96.6888 19.4934
46.4731 64.8143 15.935
46.5051 107.968 20.4903
46.5371 147.416 24.02
46.5691 102.297 19.8861
46.6011 90.1285 18.7319
46.6331 52.5154 14.3601
46.6651 78.2061 17.4685
46.6971 76.6368 17.3283
46.7291 99.8314 19.7914
46.7611 271.028 32.5764
46.7931 147.394 24.0605
46.825 111.372 20.7446
46.857 69.1228 16.3228
46.889 111.141 20.863
46.921 121.697 21.8681
46.953 244.249 30.926
46.985 316.1 35.2015
47.017 480.39 43.4476
47.049 173.656 26.1119
47.081 64.0026 15.6502
47.113 117.695 21.2085
47.145 81.8201 17.879
47.177 80.8024 17.809
47.209 62.1272 15.6136
47.241 86.0544 18.1304
47.273 97.8559 19.4348
47.305 84.3362 17.9818
47.337 179.448 26.44
47.369 92.5866 19.0449
47.401 73.5131 16.9524
47.433 74.3509 16.9794
47.4649 43.3913 13.0415
47.4969 71.2076 16.4698
47.5289 58.741 15.1423
47.5609 49.4668 13.9679
47.5929 52.7932 14.3593
47.6249 47.1661 13.5484
47.6569 53.4856 14.3119
47.6889 69.7667 16.5278
47.7209 63.8152 15.6602
47.7529 71.8316 16.7818
47.7849 72.5574 16.7804
47.8169 83.8816 18.0619
47.8489 358.29 37.4198
47.8809 331.35 35.9946
47.9129 111.098 20.8118
47.9449 79.9079 17.5329
47.9769 111.026 20.6412
48.0089 190.109 38.9202
48.0409 216.355 41.4728
48.0729 168.459 36.6488
48.1048 111.501 29.8327
48.1368 72.7577 24.0548
48.1688 94.6014 27.4417
48.2008 55.7058 21.0548
48.2328 65.5236 22.8489
48.2648 51.3796 20.1503
48.2968 68.1361 23.2725
48.3288 62.4345 21.8704
48.3608 62.1523 22.0712
48.3928 62.6719 22.1762
48.4248 51.2007 20.2006
48.4568 50.5931 20.018
48.4888 71.5875 23.8625
48.5208 63.5531 22.4694
48.5528 60.355 21.8976
48.5848 43.1483 18.5054
48.6168 64.1152 22.5147
48.6488 47.6482 19.1967
48.6808 95.3458 27.5239
48.7128 85.7637 26.096
48.7447 76.8968 24.7133
48.7767 41.5049 18.155
48.8087 94.1232 27.2975
48.8407 72.0324 23.6952
48.8727 48.5847 19.6598
48.9047 93.9708 27.3362
48.9367 112.822 29.9414
48.9687 80.7419 25.3281
49.0007 87.6421 26.3909
49.0327 119.397 30.837
49.0647 103.306 28.6813
49.0967 236.114 43.3059
49.1287 419.493 57.7927
49.1607 451.305 59.8732
49.1927 199.993 39.8798
49.2247 99.0887 28.0768
49.2567 95.7118 27.528
49.2887 114.922 30.2432
49.3207 116.495 30.4227
49.3527 52.6825 20.4734
49.3846 67.745 23.1425
49.4166 86.4383 26.0461
49.4486 80.2582 24.8354
49.4806 108.279 29.3613
49.5126 75.0233 24.4383
49.5446 52.1477 19.8706
49.5766 122.371 31.1433
49.6086 60.377 21.9378
49.6406 51.7801 20.175
49.6726 59.0006 21.6375
49.7046 85.4783 26.027
49.7366 122.041 30.9118
49.7686 147.399 34.2207
49.8006 143.583 33.679
49.8326 53.5892 20.6089
49.8646 101.709 28.4179
49.8966 102.817 28.5653
49.9286 95.2876 27.5282
49.9606 436.201 58.821
49.9896 440.858 59.1681