File: Samples/PowderCalibrations/Si_640d.xy
XYDATA
! 11BM APS Si SRM 640d
! File no. =              6098
! No. steps =             34500
! Scan time =             AUG 15, 2014 21:05
! Sample name =     	  NIST SRM 640d (Si)
! Composition =           Silicon (Si)
! Sample Comment =        0.8 mm dia Kapton
! Temp (K) =              295.6
! 2theta step (deg) =     0.001
! Time per step (sec) =   0.1
! 100/Ring Current[0] =   1.004
! Monitor I0 [0] =        86940.6
! Monitor I1 [0] =        71229.8
! Gonio._radius [mm] =    1000.0
! Calibration file =      11bmb_6097_2thcorr.calib
! 2Theta correction subtracted
! Normalization factor  = 7.8467
! Calibrated wavelength = 0.413848
! Fullprof format INSTRM=10 (x, y, sigma)
INTER 1.0 1.0  2 0.00100
! ---------------------------------------
! degrees       intensity        sigma
0.50000       323.9196        26.1318
0.53899       348.4313        27.0743
0.57799       406.4061        29.4151
0.61698       316.9051        25.9132
0.65598       304.6242        25.3973
0.69497       295.4056        25.0262
0.73397       264.2870        23.6496
0.77296       287.5477        24.6731
0.81196       303.0252        25.4349
0.85095       285.1276        24.5774
0.88995       316.0746        25.8622
0.92894       268.3609        23.8137
0.96794       293.3701        24.9912
1.00693       258.3849        23.3806
1.04593       237.7413        22.3864
1.08492       233.8410        22.1694
1.12392       249.5954        23.0366
1.16291       240.7242        22.6525
1.20191       228.2262        21.9976
1.24090       213.8624        21.2412
1.27990       219.7260        21.5788
1.31889       208.2485        21.0020
1.35789       198.3512        20.5446
1.39688       196.5529        20.3342
1.43588       236.9439        22.3231
1.47487       241.7494        22.5861
1.51387       189.0949        20.0118
1.55286       214.0796        21.2451
1.59186       238.4405        22.4244
1.63085       165.2572        18.7342
1.66985       175.5895        19.2115
1.70884       151.3920        17.9741
1.74784       170.9881        19.0807
1.78683       163.4348        18.6427
1.82583       151.2854        17.9622
1.86482       153.0984        17.9257
1.90382       147.2978        17.6859
1.94281       135.6479        16.9103
1.98181       150.7707        17.7546
2.02080       145.5431        15.7845
2.05980       126.1470        14.6545
2.09879       120.4638        14.3763
2.13779       113.7416        13.9559
2.17678       120.3080        14.3565
2.21578       138.8015        15.4048
2.25477       130.7061        14.9024
2.29377       114.0148        13.9850
2.33276       118.0088        14.2780
2.37176       122.6647        14.5451
2.41075       128.2593        14.9327
2.44975       106.2835        13.5459
2.48874       103.1739        13.3532
2.52774        95.6882        12.7497
2.56673       117.5502        14.1953
2.60573       125.0609        14.6425
2.64472        87.7241        12.2021
2.68372        83.2375        11.9406
2.72271        95.3008        12.8118
2.76171       109.6066        13.7473
2.80070       122.0511        14.4552
2.83970       101.7469        13.2166
2.87869        95.7484        12.7997
2.91769       112.8825        13.9337
2.95668       106.2060        13.4841
2.99568       100.8642        13.1218
3.03467       108.0641        13.6288
3.07367       113.8331        13.9824
3.11266       108.2058        13.7198
3.15166        99.1391        13.0386
3.19065       108.4350        13.5828
3.22965       112.5379        13.9053
3.26864        92.0968        12.6418
3.30764        86.6361        12.2270
3.34663        85.5490        12.1550
3.38563        93.6191        12.6307
3.42462        93.9143        12.7022
3.46362       122.2888        14.5210
3.50261       108.9628        13.6958
3.54161        98.9551        13.0416
3.58060        87.3945        12.2071
3.61960        83.3604        11.9643
3.65859       117.4437        14.2412
3.69759       101.6805        13.1880
3.73658       111.8015        13.8171
3.77558       105.5513        13.4221
3.81457        86.0484        12.1108
3.85357       118.3318        14.2569
3.89256       107.6701        13.5192
3.93156        93.6838        12.6608
3.97055        96.1004        12.8201
4.00955       122.0409        13.0195
4.04854       107.7946        12.3098
4.08754       110.1327        12.3622
4.12653       107.1601        12.2681
4.16553        79.3326        10.5035
4.20452        94.3255        11.4303
4.24352       156.6218        14.7142
4.28251       106.0389        12.2386
4.32151       104.6364        12.1009
4.36050       130.5754        13.5455
4.39950       100.3721        11.7507
4.43849        99.7767        11.7974
4.47749       118.9413        12.8442
4.51648       121.9325        13.0637
4.55548       115.2559        12.6750
4.59447       140.3926        14.0089
4.63347       133.3564        13.5235
4.67246       139.3179        13.9862
4.71146       130.4181        13.4737
4.75045       142.3541        14.0446
4.78945       143.6481        14.1152
4.82844       126.7164        13.3604
4.86744       147.1208        14.3889
4.90643       137.3997        13.8366
4.94543       146.4257        14.2397
4.98442       127.2016        13.3135
5.02342       131.4757        13.5339
5.06241       149.6805        14.4975
5.10141       169.0861        15.3379
5.14040       172.8703        15.5010
5.17940       170.1947        15.3805
5.21839       140.8422        14.0898
5.25739       148.7999        14.3822
5.29638       131.5927        13.4443
5.33538       144.4439        14.2370
5.37437       136.7814        13.7735
5.41337       145.9357        14.3556
5.45236       122.6488        13.1002
5.49136       139.9559        13.9894
5.53035       141.4148        14.0993
5.56935       113.1004        12.3957
5.60834       132.0259        13.5626
5.64734       111.8684        12.4452
5.68633        93.7663        11.3229
5.72533       100.3371        11.8322
5.76432       116.7949        12.6994
5.80332       104.6378        12.1136
5.84231       115.4816        12.6547
5.88131       109.2596        12.4604
5.92030       107.4439        12.2659
5.95930       100.4976        11.8800
5.99829       106.0761        11.1168
6.03729       107.3731        11.1816
6.07628       100.8439        10.8263
6.11528       113.2707        11.4077
6.15427       106.0914        11.1119
6.19327       101.2333        10.7557
6.23226       104.0655        11.0292
6.27126        80.0933         9.6413
6.31025       106.5979        11.0890
6.34925        94.4908        10.5818
6.38824        97.8736        10.6112
6.42724       104.4177        11.0482
6.46623       119.9171        11.8364
6.50523        90.4100        10.2683
6.54422       101.3921        10.8059
6.58322        92.2372        10.4923
6.62221        81.9121         9.7213
6.66121        85.5911         9.9639
6.70020        94.3374        10.5238
6.73920       103.4107        10.9854
6.77819       101.3726        10.7624
6.81719        99.4101        10.7847
6.85618       117.1956        11.6945
6.89518       103.1238        10.9675
6.93417        94.1389        10.3613
6.97317       114.7013        11.5654
7.01216       103.9615        11.0526
7.05116       107.3650        11.2076
7.09015       123.4075        12.0840
7.12915       115.7682        11.5963
7.16814       106.6325        11.2181
7.20714       101.8891        10.9144
7.24613       108.8631        11.2931
7.28513       100.4228        10.7905
7.32412       131.3224        12.3529
7.36312       123.8017        11.9665
7.40211       123.3799        11.9694
7.44111       150.2829        13.2311
7.48010       217.9874        15.9464
7.51910       666.0572        27.7863
7.55809     15941       136.2444
7.59709      1931.84        47.4702
7.63608       383.3594        21.1979
7.67508       149.8588        13.1940
7.71407       130.2878        12.3751
7.75307       101.6684        10.8418
7.79206       112.0483        11.4459
7.83106       112.5392        11.4774
7.87005       107.4597        11.1168
7.90905        93.1534        10.4394
7.94804        83.3950         9.8591
7.98704        97.2000        10.6307
8.02603        84.0234         9.2107
8.06503        90.2330         9.5872
8.10402        81.5111         9.1447
8.14302        73.2489         8.6490
8.18201        83.1123         9.2491
8.22101        87.3469         9.3786
8.26000        86.9104         9.4780
8.29899        84.6746         9.2416
8.33799        72.5326         8.6092
8.37698        82.4965         9.1379
8.41598        84.5054         9.2786
8.45497        90.7973         9.6609
8.49397        73.5728         8.6570
8.53296        81.5611         9.1042
8.57196        75.9572         8.7258
8.61095        83.0296         9.1343
8.64995        75.3761         8.7834
8.68894        68.6065         8.3115
8.72794        80.9369         9.1278
8.76693        84.3979         9.3114
8.80593        78.5597         8.9733
8.84492        83.7102         9.2568
8.88392        84.9950         9.3479
8.92291        81.4172         9.1448
8.96191        68.1740         8.3254
9.00090        75.4648         8.7821
9.03990        78.6006         8.9569
9.07889        70.7069         8.4379
9.11789        82.8779         9.1370
9.15688        84.8474         9.2990
9.19588        78.4673         8.9523
9.23487        74.5416         8.6861
9.27387        95.0192         9.7762
9.31286        69.9469         8.4302
9.35186        84.3416         9.2831
9.39085        81.9441         9.1106
9.42985        84.8103         9.3022
9.46884        73.9470         8.7057
9.50784        76.4580         8.8043
9.54683        73.4023         8.6293
9.58583        70.5234         8.5197
9.62482        85.6053         9.3080
9.66382        71.5425         8.5194
9.70281        71.8238         8.5224
9.74181        61.7849         7.8495
9.78080        77.8652         8.9441
9.81980        73.5593         8.6343
9.85879        75.3020         8.7999
9.89779        88.8686         9.5516
9.93678        88.1767         9.5029
9.97578        80.9863         9.0437
10.01477        77.0493         8.3186
10.05377        82.4122         8.5837
10.09276        74.3342         8.1759
10.13176        80.0865         8.4372
10.17075        78.2446         8.3544
10.20975        63.4877         7.4859
10.24874        75.6982         8.2054
10.28774        78.7484         8.3876
10.32673        74.0516         8.1479
10.36573        68.1843         7.7434
10.40472        74.7349         8.0917
10.44372        80.9404         8.5113
10.48271        74.9898         8.2396
10.52171        86.6693         8.7740
10.56070        72.4229         7.9999
10.59970        86.6790         8.7762
10.63869        83.5353         8.6137
10.67769        82.8588         8.5372
10.71668        74.0616         8.0729
10.75568        70.5604         7.8933
10.79467        75.4965         8.1500
10.83367        88.4126         8.9168
10.87266        89.4905         8.8810
10.91166        84.2065         8.6749
10.95065        68.7356         7.7850
10.98965        80.4660         8.5020
11.02864        66.6590         7.6753
11.06764        83.2534         8.5949
11.10663        91.8757         9.0055
11.14563        89.3119         8.8333
11.18462        78.3976         8.3827
11.22362        83.1467         8.4776
11.26261        93.4790         9.1151
11.30161        76.2437         8.2021
11.34060        75.4242         8.2538
11.37960        76.7047         8.2571
11.41859        93.1743         9.0783
11.45759        98.1889         9.3888
11.49658        91.0004         9.0198
11.53558        93.7417         9.0470
11.57457        89.3578         8.9202
11.61357        89.5057         8.9956
11.65256       110.2426         9.8299
11.69156        86.3059         8.6973
11.73055        99.9405         9.4743
11.76955        89.9472         8.8846
11.80854       112.3924         9.9685
11.84754        99.7062         9.3754
11.88653       108.9320         9.8245
11.92553        92.5242         9.0668
11.96452       113.5703        10.0471
12.00352       101.6233         9.0547
12.04251       105.5372         9.2180
12.08151       131.3483        10.2716
12.12050        98.2767         8.8880
12.15950       122.7400         9.9238
12.19849       133.5199        10.3912
12.23749       128.3544        10.1446
12.27648       197.2573        12.6395
12.31548       473.1453        19.5184
12.35447      3637.51        54.0380
12.39347      3204.56        50.7342
12.43246       514.3620        20.2816
12.47146       197.5844        12.6457
12.51045       149.7909        10.9476
12.54945       133.9181        10.3277
12.58844       128.4363        10.1171
12.62744       114.0439         9.5716
12.66643       106.8936         9.1897
12.70543       109.1248         9.3006
12.74442       122.4568         9.9140
12.78342       121.1866         9.8904
12.82241       101.4416         8.9979
12.86141       114.9257         9.5870
12.90040       115.8339         9.6329
12.93940        99.8771         8.9402
12.97839       107.3928         9.3133
13.01739       115.4467         9.5381
13.05638       105.5831         9.2421
13.09538       112.8909         9.6224
13.13437       108.6413         9.3809
13.17337       107.2969         9.2803
13.21236       100.5937         8.9563
13.25136        92.5068         8.6282
13.29035       103.4293         9.0006
13.32935       109.8790         9.3982
13.36834       115.3927         9.5779
13.40734        97.7483         8.8680
13.44633       113.3300         9.5906
13.48533        85.5880         8.3097
13.52432        83.8485         8.1194
13.56332        97.4721         8.8895
13.60231        92.9129         8.5636
13.64131       106.0668         9.2522
13.68030        91.2410         8.5769
13.71930        94.2698         8.7147
13.75829        81.0013         8.1015
13.79729       103.9553         9.1720
13.83628       110.1256         9.4063
13.87528        91.6661         8.6014
13.91427       107.5068         9.3001
13.95327       100.4445         8.9774
13.99226       116.4750         9.6683
14.03126        87.0458         7.9336
14.07025       106.0779         8.7941
14.10925        93.2347         8.3060
14.14824        98.8264         8.4915
14.18724       100.0554         8.5434
14.22623       106.9609         8.7530
14.26523       115.0179         9.1553
14.30422       115.0950         9.1397
14.34322       101.5531         8.5609
14.38221       111.0838         9.0074
14.42121       145.3544        10.2105
14.46020       334.0268        15.6017
14.49920      2134.13        39.3613
14.53819      2540.82        42.9726
14.57719       331.9132        15.5435
14.61618       169.3860        11.1369
14.65518       135.5669         9.9508
14.69417       127.2684         9.6193
14.73317       102.0767         8.6564
14.77216       102.3192         8.5800
14.81116       100.8659         8.5646
14.85015        91.2175         8.1031
14.88915       102.9497         8.6491
14.92814       104.6093         8.7303
14.96714        92.4746         8.1601
15.00613        98.0394         8.4592
15.04513       102.9520         8.6738
15.08412        84.8825         7.9158
15.12312        99.5477         8.5421
15.16211        99.6802         8.4892
15.20111        83.7472         7.7769
15.24010        85.5902         7.8816
15.27910        84.3824         7.7734
15.31809        86.0451         7.9065
15.35709        80.8967         7.6957
15.39608        85.2711         7.9014
15.43508        87.9357         7.9766
15.47407        87.4341         7.9756
15.51307        81.3140         7.6603
15.55206        85.9610         7.8946
15.59106        74.1878         7.3749
15.63005        74.0768         7.3362
15.66905        88.6721         8.0407
15.70804        92.5712         8.2511
15.74704        91.5584         8.1835
15.78603        86.2009         7.8954
15.82503        81.5409         7.6985
15.86402        81.8662         7.7385
15.90302        85.6474         7.8907
15.94201        78.0954         7.5220
15.98101        90.6228         8.1480
16.02000        81.6989         7.3774
16.05900        83.1996         7.4049
16.09799        86.5252         7.5818
16.13698        86.6431         7.5961
16.17598        81.6157         7.4095
16.21497        76.0801         7.0762
16.25397        89.3952         7.6400
16.29296        85.3089         7.5359
16.33196        70.6193         6.8716
16.37095        79.2508         7.2967
16.40995        92.3180         7.8740
16.44894        91.4646         7.7593
16.48794        78.2917         7.2062
16.52693        81.9769         7.3622
16.56593        84.4210         7.4240
16.60492        77.4755         7.2017
16.64392        77.1008         7.1554
16.68291        77.2963         7.1481
16.72191        85.6469         7.5737
16.76090        81.0984         7.3520
16.79990        89.7997         7.6981
16.83889        77.0468         7.1582
16.87789        87.6344         7.6275
16.91688        85.3799         7.4817
16.95588        78.5666         7.2011
16.99487        82.8545         7.4052
17.03387        91.5988         7.8011
17.07286        92.8628         7.8345
17.11186        79.9006         7.2594
17.15085        78.1970         7.1847
17.18985        82.5527         7.4040
17.22884        82.6208         7.4018
17.26784        92.7203         7.8104
17.30683        87.2190         7.6052
17.34583        94.3908         7.9542
17.38482        85.9677         7.5429
17.42382        94.8623         7.8451
17.46281       131.0140         9.3146
17.50181       365.8140        15.5838
17.54080      3509.3        48.3155
17.57980       191.2794        11.2550
17.61879       107.9547         8.4342
17.65779        97.8515         8.0389
17.69678        96.6735         8.0340
17.73578       101.2083         8.2268
17.77477        91.3681         7.7475
17.81377        93.6820         7.9309
17.85276        90.3407         7.7167
17.89176        90.2705         7.6879
17.93075        79.7156         7.2740
17.96975        94.2766         7.9198
18.00874        86.4687         7.5407
18.04774        80.6607         7.3106
18.08673        91.3147         7.7336
18.12573       101.6364         8.2381
18.16472        91.9056         7.8713
18.20372        84.3323         7.4470
18.24271        84.9744         7.4939
18.28171        84.1693         7.5068
18.32070        89.0686         7.7000
18.35970        82.4523         7.3575
18.39869        97.9145         8.0680
18.43769        91.2637         7.8008
18.47668        88.2123         7.6528
18.51568        95.2141         7.9698
18.55467        87.0933         7.5997
18.59367        88.0576         7.5953
18.63266        84.3301         7.4230
18.67166        88.6449         7.6348
18.71065        92.8122         7.8588
18.74965       109.0262         8.5077
18.78864       102.6576         8.2947
18.82764        93.7689         7.8412
18.86663       113.7479         8.7083
18.90563       107.3546         8.4340
18.94462       107.7911         8.4476
18.98362       120.3584         8.9770
19.02261       130.4900         9.3319
19.06161       231.4715        12.3887
19.10060      1233.08        28.5903
19.13960      1136.47        27.5077
19.17859       224.5081        12.2189
19.21759       139.6146         9.6310
19.25658       111.4546         8.5990
19.29558       130.8072         9.3580
19.33457       114.8174         8.7477
19.37357       111.0474         8.5591
19.41256       112.7542         8.6322
19.45156       106.5057         8.3993
19.49055       110.8996         8.5586
19.52955       113.5187         8.6706
19.56854       106.2318         8.3945
19.60754       104.1340         8.3084
19.64653       119.5428         8.8764
19.68553       112.6759         8.6774
19.72452       104.7432         8.3745
19.76352       100.5944         8.1900
19.80251       111.3335         8.5978
19.84151       114.5313         8.6916
19.88050       102.6710         8.2448
19.91950       106.9366         8.4528
19.95849       105.7948         8.4147
19.99749       105.0903         8.3412
20.03648       113.5389         8.6591
20.07548       115.6588         8.8006
20.11447       105.3239         8.3400
20.15347       103.5392         8.3046
20.19246       117.4932         8.8486
20.23146       110.6449         8.5803
20.27045       111.9087         8.5849
20.30945       121.1625         8.9908
20.34844       101.4240         8.1973
20.38744       100.2971         8.1883
20.42643       121.1220         9.0076
20.46543       127.2596         9.1837
20.50442       104.9616         8.3799
20.54342       115.9003         8.7116
20.58241       113.8966         8.6945
20.62141       117.0574         8.8351
20.66040       106.4968         8.4983
20.69940       122.9595         9.0642
20.73839       114.5827         8.7637
20.77739       106.9191         8.4327
20.81638       123.9778         9.0974
20.85538       108.7051         8.4775
20.89437       106.7872         8.3464
20.93337       111.2050         8.5939
20.97236       120.2417         8.9429
21.01136       114.3628         8.6620
21.05035       117.1739         8.8515
21.08935       113.9430         8.7121
21.12834       115.9207         8.7906
21.16734       122.4541         8.9921
21.20633       119.2932         8.9420
21.24533       119.5017         8.8899
21.28432       126.7233         9.1845
21.32332       138.5503         9.6176
21.36231       144.5270         9.8487
21.40131       137.5971         9.5339
21.44030       214.8571        11.9850
21.47930       575.4528        19.5926
21.51829     32731.5       147.6171
21.55729       493.3047        18.1184
21.59628       203.6787        11.6572
21.63528       154.9545        10.1782
21.67427       139.5051         9.5982
21.71327       148.2048         9.9018
21.75226       130.1495         9.3443
21.79126       124.7958         9.0876
21.83025       133.4125         9.3847
21.86925       126.7919         9.1885
21.90824       133.1331         9.4340
21.94724       131.4539         9.3699
21.98623       121.6021         8.9658
22.02523       136.1934         9.5260
22.06422       114.5938         8.7139
22.10322       118.3280         8.8636
22.14221       126.6194         9.1879
22.18121       123.8416         9.0880
22.22020       114.9569         8.7298
22.25920       126.4559         9.2181
22.29819       109.7118         8.6293
22.33719       119.3685         8.8882
22.37618       112.9788         8.6699
22.41518       114.8260         8.7845
22.45417       112.1855         8.6204
22.49317       116.8304         8.8048
22.53216       114.5208         8.6813
22.57116       122.3578         8.9526
22.61015       117.9384         8.8075
22.64915       121.5932         8.9649
22.68814       133.0625         9.4292
22.72714       129.3854         9.2798
22.76613       187.0319        11.1810
22.80513       436.3279        17.0503
22.84412      5838.05        62.4065
22.88312       295.3887        14.0366
22.92211       148.6622         9.9340
22.96111       137.0587         9.5241
23.00010       144.2248         9.8310
23.03910       136.8634         9.5479
23.07809       131.1802         9.3735
23.11709       114.5591         8.7006
23.15608       123.0757         9.1008
23.19508       115.7909         8.7675
23.23407       108.9609         8.4814
23.27307       100.5292         8.1863
23.31206       110.4353         8.5504
23.35106       105.0426         8.3990
23.39005       106.7432         8.3651
23.42905       109.1740         8.5426
23.46804       118.3700         8.8884
23.50704       105.6934         8.3867
23.54603       108.0335         8.4803
23.58503       100.5655         8.0983
23.62402       114.2337         8.7690
23.66302       107.8466         8.4460
23.70201       102.8036         8.2666
23.74101        99.8588         8.0888
23.78000       110.6248         8.5289
23.81900       103.5333         8.3164
23.85799       101.4663         8.2544
23.89698       101.8111         8.2197
23.93598       109.6920         8.5204
23.97497       105.4273         8.3804
24.01397       118.1638         8.9003
24.05296       105.6443         8.2868
24.09196       111.8571         8.6461
24.13095       119.2950         8.8801
24.16995       123.4847         9.0721
24.20894        90.8675         7.7695
24.24794       106.0181         8.4032
24.28693       106.0000         8.4442
24.32593       109.8971         8.5531
24.36492       121.0956         8.9544
24.40392       102.6006         8.2352
24.44291       115.8806         8.8102
24.48191        93.7290         7.8351
24.52090       118.2921         8.8837
24.55990       112.2669         8.6387
24.59889       111.2109         8.6782
24.63789       124.6772         9.1132
24.67688       123.8436         9.0441
24.71588       129.1557         9.3295
24.75487       120.7253         8.9365
24.79387       126.9976         9.2094
24.83286       163.3212        10.4440
24.87186       538.9484        18.9506
24.91085       703.0894        21.6378
24.94985       162.2279        10.3701
24.98884       133.0573         9.3761
25.02784       117.8848         8.8158
25.06683       127.5217         9.2262
25.10583       128.7594         9.2935
25.14482       112.7277         8.6844
25.18382       115.4493         8.7085
25.22281       121.6670         9.0029
25.26181       113.8446         8.6871
25.30080       105.4927         8.3759
25.33980       109.1953         8.5562
25.37879       122.0001         8.9948
25.41779       129.9280         9.3007
25.45678       112.2257         8.6776
25.49578       121.6654         8.9841
25.53477       121.7521         8.9844
25.57377       120.7773         8.9576
25.61276       120.8752         8.9559
25.65176       110.1046         8.5545
25.69075       113.4543         8.6531
25.72975       118.9090         8.9046
25.76874       130.1609         9.3013
25.80774       124.1288         9.1038
25.84673       123.9882         9.1228
25.88573       129.3638         9.3230
25.92472       141.4959         9.7241
25.96372       149.7589        10.0367
26.00271       228.6931        12.3204
26.04171      2544.41        41.2252
26.08070       580.3004        19.7176
26.11970       177.9051        10.8873
26.15869       136.9869         9.6094
26.19769       119.4658         8.9026
26.23668       128.3479         9.2771
26.27568       117.0950         8.8403
26.31467       108.4597         8.4592
26.35367       118.6052         8.8849
26.39266       114.8076         8.7268
26.43166       117.1163         8.8133
26.47065       110.1768         8.5814
26.50965       110.5355         8.5373
26.54864       110.8299         8.5762
26.58764       101.7200         8.2484
26.62663       113.6186         8.7006
26.66563       100.0043         8.1539
26.70462       103.9073         8.3185
26.74362       116.1084         8.7813
26.78261        96.0101         8.0259
26.82161       100.7171         8.1940
26.86060       107.9872         8.4859
26.89960       113.3052         8.7261
26.93859       120.4545         8.9734
26.97759       109.9715         8.5196
27.01658        95.5763         7.9910
27.05558       100.7065         8.2129
27.09457       109.6212         8.4436
27.13357        94.4863         7.9639
27.17256       109.8488         8.5742
27.21156        94.9668         7.9098
27.25055        98.0802         8.0876
27.28955        90.9838         7.7828
27.32854        98.7229         8.1066
27.36754       108.3646         8.5002
27.40653       106.4835         8.4181
27.44553       111.5922         8.5946
27.48452       106.7192         8.3956
27.52352        88.8050         7.6856
27.56251       117.0639         8.8651
27.60151       110.5952         8.6180
27.64050       108.2158         8.4921
27.67950        99.9685         8.1108
27.71849       110.6963         8.5569
27.75749       113.4075         8.6476
27.79648       132.0229         9.3851
27.83548       185.1326        11.1371
27.87447      1704.39        33.7379
27.91347       508.3220        18.4390
27.95246       165.6959        10.5410
27.99146       128.5388         9.2984
28.03045       110.9429         8.9514
28.06945       112.4128         9.0572
28.10844        96.5219         8.3446
28.14744       113.5362         9.0521
28.18643       104.8227         8.7387
28.22543        95.3565         8.2699
28.26442       111.9749         8.9542
28.30342        98.8351         8.4430
28.34241       114.0872         9.1017
28.38141        98.1145         8.4015
28.42040       108.9601         8.8864
28.45940       100.2461         8.5006
28.49839       105.2783         8.7298
28.53739       107.7975         8.8338
28.57638        94.4037         8.2590
28.61538        96.8196         8.3887
28.65437        97.1038         8.3954
28.69337        97.0589         8.3615
28.73236       110.7044         8.9993
28.77136       111.1065         8.9959
28.81035       122.9989         9.4041
28.84935       120.0437         9.3290
28.88834       154.7424        10.5761
28.92734      1563.13        33.6491
28.96633       226.6219        12.7906
29.00533       131.0654         9.7589
29.04432       111.3840         8.9500
29.08332        93.2279         8.1451
29.12231       118.4348         9.2705
29.16131       114.8573         9.1457
29.20030       103.1888         8.6756
29.23930        92.9739         8.1911
29.27829       106.4181         8.7835
29.31729       115.6927         9.1713
29.35628       106.0107         8.7659
29.39528       100.4236         8.4690
29.43427       100.9036         8.5589
29.47327       106.4486         8.8004
29.51226       100.5063         8.5706
29.55126       112.3246         9.0348
29.59025       105.3124         8.7588
29.62925       111.6338         8.9659
29.66824        96.1115         8.3055
29.70724       110.4305         8.9784
29.74623       107.4033         8.8029
29.78523       109.0559         8.9019
29.82422       102.0905         8.5886
29.86322       107.5081         8.8074
29.90221       100.4904         8.5581
29.94121       102.5677         8.6258
29.98020       109.4648         8.9113
30.01920       117.4945         9.7138
30.05819       104.4368         9.0864
30.09719       100.1014         8.8428
30.13618       102.5227         8.9968
30.17518       116.5120         9.6358
30.21417       104.7867         9.1298
30.25317       113.1850         9.4781
30.29216       102.0333         8.9229
30.33116       112.6113         9.5026
30.37015       104.3154         9.1122
30.40915        99.0071         8.8223
30.44814        97.9070         8.9005
30.48714       104.9927         9.1386
30.52613       116.7564         9.6862
30.56513       127.0537        10.0473
30.60412      1185.91        30.6349
30.64312       156.5079        11.0893
30.68211       105.5550         9.1662
30.72111       114.5027         9.5028
30.76010       112.7891         9.5211
30.79910       104.0546         9.1311
30.83809       100.6012         9.0021
30.87709       113.8565         9.5154
30.91608        98.3301         8.7286
30.95508       114.4136         9.5211
30.99407        89.6648         8.4400
31.03307       109.5007         9.4182
31.07206       108.4393         9.2336
31.11106       111.2593         9.4257
31.15005       112.4836         9.4300
31.18905       117.1279         9.6886
31.22804       109.4589         9.3159
31.26704       106.8375         9.2249
31.30603       105.0080         9.1486
31.34503       124.1851         9.9620
31.38402       102.9763         9.0540
31.42302       138.3578        10.4840
31.46201       117.2388         9.6487
31.50101       141.6577        10.5851
31.54000       218.1987        13.1439
31.57900      8775.49        83.6565
31.61799       220.9979        13.3587
31.65698       128.2573        10.0237
31.69598       102.4209         9.0261
31.73497       124.4370         9.9680
31.77397        96.8535         8.7253
31.81296       115.0608         9.4863
31.85196       118.4063         9.7005
31.89095       109.1758         9.2860
31.92995       120.2873         9.7856
31.96894       111.5023         9.4276
32.00794       116.6508        10.1689
32.04693       125.1406        10.5100
32.08593       109.5920         9.8090
32.12492       119.2590        10.2537
32.16392       127.6475        10.6046
32.20291       120.0755        10.2671
32.24191       116.6822        10.1402
32.28090       120.3464        10.2451
32.31990       117.5645        10.1415
32.35889       113.0355        10.0105
32.39789       121.5056        10.3398
32.43688       120.0860        10.2470
32.47588       126.0722        10.5423
32.51487       133.6642        10.8579
32.55387       128.3431        10.5999
32.59286       110.1094         9.8142
32.63186       116.0834        10.1489
32.67085       115.3547        10.0958
32.70985       118.4258        10.2018
32.74884       111.8291         9.9070
32.78784       124.3064        10.4673
32.82683       122.3439        10.3640
32.86583       118.7714        10.2985
32.90482       123.0042        10.4471
32.94382       118.9009        10.1599
32.98281       134.2081        10.7878
33.02181       145.2847        11.3125
33.06080       168.0515        12.2126
33.09980       357.7102        17.7824
33.13879      3968.72        59.1510
33.17779       237.9125        14.4977
33.21678       145.4375        11.3253
33.25578       140.8318        11.1769
33.29477       135.8337        10.9059
33.33377       134.4466        10.9073
33.37276       131.2476        10.7827
33.41176       124.0675        10.4621
33.45075       125.8631        10.4387
33.48975       121.4958        10.4063
33.52874       120.2798        10.3272
33.56774       121.3996        10.3239
33.60673       118.4689        10.2368
33.64573       104.7319         9.5853
33.68472       127.3227        10.5619
33.72372       120.8367        10.3345
33.76271       129.3427        10.6774
33.80171       126.8598        10.5254
33.84070       111.1622         9.9334
33.87970       134.3201        10.7978
33.91869       126.2711        10.5715
33.95769       137.2657        10.9382
33.99668       256.8734        15.8000
34.03568      8564.28        91.3822
34.07467       230.7702        14.9811
34.11367       132.0859        11.3588
34.15266       144.8657        11.9015
34.19166       129.7861        11.2852
34.23065       102.8390         9.9802
34.26965       117.8262        10.6632
34.30864       112.7552        10.4185
34.34764       106.0667        10.1044
34.38663       128.5334        11.1830
34.42563       124.0550        10.9942
34.46462       102.8947         9.9328
34.50362       109.0752        10.2396
34.54261       105.6638        10.1966
34.58161       113.4887        10.5420
34.62060       102.0365         9.8052
34.65960       103.9836        10.0348
34.69859        91.5487         9.4217
34.73759       118.7777        10.7634
34.77658       107.0247        10.0756
34.81558        94.5426         9.5924
34.85457       102.6245         9.9623
34.89357       115.6893        10.6170
34.93256       108.4081        10.2632
34.97156       102.3047         9.9313
35.01055       106.1643        10.1391
35.04955       124.1063        10.9379
35.08854       118.4511        10.7238
35.12754        94.3447         9.5551
35.16653        94.7228         9.6673
35.20553       104.2745        10.0695
35.24452       106.5839        10.2647
35.28352       103.9307        10.0860
35.32251       116.7488        10.6647
35.36151       100.0308         9.8023
35.40050       112.3059        10.4803
35.43950       108.8068        10.3105
35.47849       224.6683        14.7234
35.51749       133.1292        11.3401
35.55648       121.3292        10.8644
35.59548        96.5053         9.6471
35.63447        98.9934         9.9289
35.67347        93.1590         9.4633
35.71246        91.0208         9.3430
35.75146       113.6122        10.5189
35.79045        89.8051         9.3966
35.82945       109.6632        10.2340
35.86844       101.3212         9.9571
35.90744        90.8956         9.4149
35.94643       100.1676         9.8202
35.98543        97.6666         9.6985
36.02442       102.3307        10.6073
36.06342        90.3100         9.8938
36.10241       102.5861        10.5380
36.14141       107.1273        10.7059
36.18040        96.1537        10.2005
36.21940        99.2029        10.4181
36.25839        92.6272        10.0172
36.29739       110.2914        10.8460
36.33638       878.7205        30.8704
36.37538       159.3945        13.0925
36.41437        87.7713         9.7256
36.45337        98.6909        10.2033
36.49236        90.6219         9.9692
36.53136        91.3435         9.9727
36.57035       101.2042        10.4694
36.60935        86.1629         9.6557
36.64834        99.9731        10.4288
36.68734        80.9731         9.3493
36.72633        89.7855         9.9072
36.76533       104.4460        10.6574
36.80432        93.5514        10.0685
36.84332        83.9887         9.5529
36.88231        83.6912         9.4693
36.92131        88.9523         9.8185
36.96030        81.5277         9.3743
36.99930       107.8676        10.8426
37.03829        95.3233        10.1268
37.07729        96.8261        10.2341
37.11628        88.9773         9.7780
37.15528        87.9653         9.7784
37.19427        91.8389        10.0239
37.23327        92.6686         9.9621
37.27226       114.1160        11.0934
37.31126       102.0047        10.5379
37.35025        95.1303        10.1763
37.38925        94.8154        10.0860
37.42824        86.3763         9.6180
37.46724        94.0569        10.0998
37.50623        97.3963        10.2570
37.54523       112.9814        11.0513
37.58422        97.8859        10.2815
37.62322       106.3640        10.7776
37.66221       119.8493        11.3133
37.70121       302.2494        18.0338
37.74020       479.3943        22.7302
37.77920       145.9198        12.5361
37.81819        87.8220         9.8269
37.85719        96.9634        10.1954
37.89618       105.4693        10.7438
37.93518       103.8732        10.5636
37.97417       106.9805        10.8210
38.01317        96.0215        11.0088
38.05216       115.3835        12.0523
38.09116       100.0932        11.3064
38.13015       101.8354        11.3181
38.16915       107.7287        11.6100
38.20814        81.5493        10.0975
38.24714        85.0085        10.3921
38.28613        92.0102        10.7771
38.32513        95.3886        10.9848
38.36412        84.6309        10.3368
38.40312       106.2420        11.6668
38.44211       107.6616        11.7647
38.48111       113.2956        11.9735
38.52010       571.3758        26.8399
38.55910       207.9532        16.1994
38.59809       108.9138        11.7466
38.63709       108.9421        11.6883
38.67608        89.6758        10.7043
38.71508        82.1436        10.1917
38.75407       103.0324        11.4319
38.79307        93.5610        10.8985
38.83206       100.0032        11.2680
38.87106        81.0569        10.1314
38.91005        87.3905        10.5381
38.94905       109.9299        11.7675
38.98804       103.3082        11.3923
39.02704        79.9350        10.0846
39.06603        85.3430        10.4131
39.10503        85.6872        10.3712
39.14402        89.4798        10.6884
39.18302        86.7397        10.5360
39.22201       105.0052        11.5636
39.26101        85.7773        10.4137
39.30000        86.6938        10.4191
39.33900       100.6648        11.3420
39.37799        91.0893        10.7506
39.41699        85.0321        10.3630
39.45598        83.8810        10.2560
39.49497        94.9919        11.0370
39.53397        91.3552        10.7437
39.57296        93.3400        10.8362
39.61196       104.1583        11.5093
39.65095        97.3440        11.1134
39.68995        95.2754        10.9806
39.72894       112.6319        11.8883
39.76794       118.3450        12.3151
39.80693       115.3520        12.1089
39.84593      2144.63        52.1535
39.88492       125.4444        12.5918
39.92392        97.1952        11.0330
39.96291        89.3411        10.6838
40.00191        93.8889        12.0370
40.04090        93.8343        11.9669
40.07990        89.2755        11.6456
40.11889       120.5099        13.6198
40.15789        88.7348        11.6554
40.19688        88.8114        11.7433
40.23588       104.2639        12.7184
40.27487        94.3481        12.1277
40.31387       100.3153        12.4249
40.35286       103.8868        12.7572
40.39186       116.3789        13.4892
40.43085        96.3641        12.2858
40.46985       106.2813        12.7913
40.50884       117.7039        13.4919
40.54784       118.3583        13.3238
40.58683       179.5304        16.7473
40.62583      1878.48        54.0148
40.66482       119.8552        13.5854
40.70382       101.5123        12.5880
40.74281        96.1553        12.2341
40.78181       120.4318        13.7026
40.82080       101.5424        12.5128
40.85980        98.0349        12.4290
40.89879        99.3626        12.4750
40.93779        85.7671        11.4968
40.97678        77.8972        10.8508
41.01578       100.0522        12.4266
41.05477        95.0557        12.1735
41.09377        82.9373        11.3773
41.13276       106.3060        12.8538
41.17176        95.8805        12.1788
41.21075        89.1467        11.7232
41.24975       106.2052        12.8456
41.28874        90.5196        11.9286
41.32774        80.0104        11.1368
41.36673       102.0004        12.6109
41.40573        85.2066        11.4470
41.44472        98.9177        12.3014
41.48372        97.5975        12.2762
41.52271       105.7003        12.8153
41.56171        90.7764        11.8361
41.60070        92.0880        11.9380
41.63970       101.4464        12.4747
41.67869        65.3187        10.0655
41.71769        78.8234        11.0954
41.75668       102.6397        12.5532
41.79568        88.0935        11.7298
41.83467       109.0017        12.9793
41.87367       582.4997        30.0755
41.91266       139.1830        14.6926
41.95166        96.7647        12.3371
41.99065        99.3544        12.4441
42.02965        97.6941        13.6105
42.06864        89.2898        13.0523
42.10764       120.3151        15.0296
42.14663        98.5309        13.6180
42.18563        94.2160        13.4170
42.22462        94.7105        13.4043
42.26362        97.5540        13.7391
42.30261        92.5801        13.1318
42.34161       102.3036        13.8479
42.38060        86.5394        12.7002
42.41960        90.2774        12.9663
42.45859        85.8888        12.6933
42.49759        87.9681        12.9053
42.53658        91.5666        13.1268
42.57558       122.2656        15.1440
42.61457       433.0052        28.5916
42.65357       140.4166        16.2441
42.69256       123.1462        15.0814
42.73156       101.4569        13.8418
42.77055        98.5560        13.5155
42.80955        68.6528        11.3402
42.84854        83.0266        12.5674
42.88754        90.8596        13.1938
42.92653        95.5081        13.4580
42.96553        72.7498        11.8080
43.00452        88.4513        12.9115
43.04352        95.3878        13.4901
43.08251       102.5136        13.8152
43.12151        92.3069        13.3079
43.16050        76.1459        11.8790
43.19950       117.9600        15.0462
43.23849        71.7238        11.6396
43.27749        86.6589        12.7742
43.31648        73.0428        11.5321
43.35548        91.0969        12.9934
43.39447        89.6815        12.8667
43.43347        82.2149        12.3913
43.47246        78.0527        12.0432
43.51146        93.3615        13.3216
43.55045        83.1021        12.5202
43.58945        75.9885        11.9483
43.62844        99.3639        13.7145
43.66744        76.2684        11.9533
43.70643        91.3524        12.9704
43.74543        90.4176        12.9745
43.78442        88.1342        12.9306
43.82342       201.0424        19.6877
43.86241       133.8589        15.9244
43.90141       118.6836        15.0037
43.94040       104.3221        13.9550
43.97940        84.4861        12.6809
44.01839        77.4494        14.2525
44.05739        93.5864        15.7017
44.09638        77.2474        14.2731
44.13538        65.2173        13.0392
44.17437        83.7823        14.8465
44.21337        97.8273        16.1322
44.25236        95.5391        15.8596
44.29136        88.4231        15.2469
44.33035        95.0390        15.7867
44.36935        99.1042        16.0936
44.40834       104.9897        16.6579
44.44734        83.2066        14.6909
44.48633       102.7956        16.4546
44.52533       153.6128        20.1050
44.56432       522.7010        37.1384
44.60332        97.6633        16.0180
44.64231        73.5449        13.7314
44.68131        85.3148        14.9098
44.72030        74.5253        13.9914
44.75930        67.7523        13.3133
44.79829        61.8144        12.7785
44.83729        84.3665        14.8998
44.87628        81.0141        14.5765
44.91528       113.9300        17.2050
44.95427        80.4920        14.5498
44.99327        71.7575        13.7489
45.03226        87.8662        15.2430
45.07126       107.0130        16.7805
45.11025        79.3199        14.4975
45.14925        94.2755        15.8163
45.18824       100.3377        16.3012
45.22724        97.3926        16.0100
45.26623       100.4088        16.2917
45.30523        99.2347        16.0399
45.34422        90.5452        15.4675
45.38322        85.2305        14.8861
45.42221        67.3372        13.1933
45.46121        86.1499        15.0015
45.50020        79.5117        14.4908
45.53920        76.4155        14.2603
45.57819        83.5758        14.7937
45.61719       121.0107        17.8106
45.65618        87.8779        15.1989
45.69518       127.9335        18.3097
45.73417      1492.62        62.7427
45.77317       140.8543        19.1966
45.81216       111.0683        17.0695
45.85116        96.0127        15.8943
45.89015        85.7512        14.9708
45.92915        93.1729        15.6256
45.96814        90.9089        15.4972
46.00714        77.8607        17.3384
46.04613        83.8876        18.0069
46.08513        91.2161        18.7325
46.12412        96.8972        19.3864
46.16312        66.7521        16.0896
46.20211        84.4894        18.0978
46.24111        88.6856        18.4812
46.28010        99.7745        19.6723
46.31910        61.8406        15.4076
46.35809       118.8652        21.4626
46.39709       137.8685        23.0141
46.43608       246.9583        30.8102
46.47508        90.8010        18.7528
46.51407        78.0090        17.3360
46.55307        95.7214        19.1392
46.59206        75.6473        16.8413
46.63106        90.7481        18.5589
46.67005        84.4952        18.1107
46.70905        99.5659        19.6519
46.74804        59.4957        15.0426
46.78704        77.9905        17.3959
46.82603        84.9293        18.1058
46.86503        98.0660        19.4822
46.90402        71.9591        16.6060
46.94302        86.8192        18.2798
46.98201        83.2324        17.9189
47.02101        86.6031        18.3354
47.06000        77.7500        17.3465
47.09900        65.3876        15.9343
47.13799        75.9734        17.1820
47.17699       100.4359        19.7200
47.21598        69.4918        16.2424
47.25497        74.0871        16.9321
47.29397        71.9345        16.3111
47.33296        76.0683        17.1839
47.37196        91.2046        18.7504
47.41095        76.0042        17.1165
47.44995        53.2716        14.0788
47.48894        69.3454        16.3831
47.52794        70.4807        16.5283
47.56693        79.6261        16.7977
47.60593        80.0783        17.5445
47.64492       100.8599        19.7502
47.68392        97.5887        19.4340
47.72291        92.2424        18.9005
47.76191        55.0013        14.6014
47.80090        70.4620        16.5260
47.83990        56.5733        14.8167
47.87889        83.8051        18.0186
47.91789        66.6514        15.9710
47.95688        94.6754        19.0425
47.99588        82.3703        25.3316
48.03487       110.1463        29.0831
48.07387        75.3106        24.2405
48.11286        98.5927        27.6245
48.15186        51.7165        19.6240
48.19085        62.3446        20.8019
48.22985       741.3865        76.0646
48.26884        86.1666        25.9364
48.30784        79.3036        24.8939
48.34683        89.7785        26.4266
48.38583        58.7229        21.3564
48.42482        61.6680        21.8709
48.46382        60.6901        21.4721
48.50281        70.2871        23.4290
48.54181        61.9629        21.8824
48.58080        76.0857        24.1177
48.61980        52.2797        20.0965
48.65879        66.3610        22.6861
48.69779        41.3948        17.9116
48.73678        93.2014        26.9657
48.77578        76.4050        24.3718
48.81477       104.7009        28.5193
48.85377        46.8682        19.1339
48.89276        43.3692        18.3493
48.93176        49.4139        19.6305
48.97075        80.4331        25.0335
49.00975        74.0978        23.8524
49.04874        78.1478        24.7125
49.08774        41.6972        17.7176
49.12673        85.5184        25.7494
49.16573        76.1944        24.3631
49.20472        32.7595        15.4370
49.24372       109.5752        29.0961
49.28271        77.8636        24.6575
49.32171       251.3553        44.2738
49.36070        93.5720        27.0119
49.39970        89.1755        26.3732
49.43869        67.9011        23.0053
49.47769        88.3761        26.2615
49.51668        48.9665        19.5327
49.55568        63.1403        22.0521
49.59467        45.9067        18.7408
49.63367        85.9831        25.9249
49.67266        28.4292        14.5462
49.71166        71.7372        23.6583
49.75065        64.2713        22.3636
49.78965       107.8667        29.0159
49.82864        62.4679        22.0857
49.86764        74.6098        24.0988
49.90663        30.2394        15.0849
49.94563        85.7666        25.8596
49.98462       339.8810        51.5157
49.98862       562.0410        66.2593