File: Samples/PowderCalibrations/ZnO_674b.xy
XYDATA
! Title:  11BM APS ZnO
INTER 1.0 1.0 2 0.0010
TEMP 295.0
! Fullprof format INSTRM=10 (x, y, sigma)
! Run no. =               4715
! No. steps =             34500
! Scan time =             MAY 31, 2014 23:52
! Sample name =     	  NIST SRM 674b (ZnO)
! Composition =           Zinc Oxide
! Sample Comment =        0.8 mm dia Kapton
! Temp (K) =              295.0
! 2theta step (deg) =     0.001
! Time per step (sec) =   0.1
! 100/Ring Current[0] =   1.025
! Monitor I0 [0] =        89933.5
! Monitor I1 [0] =        73484.6
! Gonio._radius [mm] =    1000.0
! Calibration file =      11bmb_4699_2thcorr.calib
! 2Theta correction subtracted
! Normalization factor  = 8.1812
! Calibrated wavelength = 0.413671
!
! 2theta, intensity, sigma(intensity)
2.000000 116.029 14.4765
2.031995 114.408 14.327
2.063990 100.43 13.3815
2.095985 121.95 14.7174
2.127980 95.669 13.113
2.159975 109.791 14.0344
2.191970 105.932 13.7333
2.223965 123.275 14.9497
2.255960 113.638 14.2653
2.287955 90.3689 12.7033
2.319950 94.369 13.0533
2.351945 122.533 14.837
2.383940 100.019 13.3663
2.415935 81.5811 12.2028
2.447931 114.464 14.2759
2.479926 98.1221 13.2892
2.511921 88.2628 12.5401
2.543916 73.8299 11.5085
2.575911 88.6564 12.6341
2.607906 119.953 14.627
2.639901 85.917 12.4194
2.671896 84.7799 12.3581
2.703891 79.2906 11.9749
2.735886 72.9511 11.4261
2.767881 92.2718 12.7953
2.799876 74.552 11.4817
2.831871 80.8085 11.8356
2.863866 82.3595 12.1684
2.895861 79.1063 11.8315
2.927856 71.633 11.314
2.959851 82.2888 12.1653
2.991846 75.1938 11.5965
3.023841 86.5301 12.3032
3.055836 73.5496 11.5315
3.087831 80.3711 12.0184
3.119826 83.6382 12.1708
3.151821 98.7385 13.3083
3.183816 93.2733 12.8772
3.215811 100.288 13.4831
3.247806 72.2169 11.3806
3.279801 74.119 11.4513
3.311796 96.2517 13.176
3.343792 81.1857 12.1489
3.375787 99.3386 13.2321
3.407782 74.8769 11.5236
3.439777 63.5118 10.5965
3.471772 101.407 13.5238
3.503767 74.7992 10.3861
3.535762 75.7065 10.5077
3.567757 87.0653 11.231
3.599752 81.6293 10.8976
3.631747 80.2163 10.8307
3.663742 77.6509 10.6941
3.695737 79.7994 10.7229
3.727732 84.9335 11.0321
3.759727 91.0313 11.4961
3.791722 81.7921 10.9534
3.823717 90.8595 11.5695
3.855712 76.347 10.5124
3.887707 78.6942 10.7764
3.919702 86.9939 11.2247
3.951697 100.935 12.189
3.983692 96.1123 11.8635
4.015687 99.7353 12.0313
4.047682 84.4353 11.0658
4.079677 104.529 12.1935
4.111672 91.0243 11.5193
4.143667 102.092 12.2126
4.175662 75.3898 10.3625
4.207658 106.822 12.4527
4.239653 102.319 12.265
4.271648 92.1984 11.5276
4.303643 92.6879 11.4774
4.335638 101.933 12.1982
4.367633 101.414 12.2175
4.399628 98.996 11.9665
4.431623 103.33 12.168
4.463618 104.129 12.2836
4.495613 111.523 12.6213
4.527608 119.239 13.1782
4.559603 109.6 12.5405
4.591598 107.42 12.5752
4.623593 96.5272 11.7609
4.655588 107.842 12.5253
4.687583 121.34 13.2408
4.719578 95.029 11.7019
4.751573 123.405 13.3846
4.783568 96.1492 11.883
4.815563 120.069 13.1535
4.847558 117.911 13.1329
4.879553 120.695 13.2551
4.911548 105.79 12.3467
4.943543 117.806 12.9649
4.975538 114.696 12.9454
5.007533 118.643 13.1896
5.039528 118.186 13.013
5.071523 118.403 13.1138
5.103519 114.588 12.853
5.135514 100.579 12.0845
5.167509 114.299 12.9247
5.199504 115.886 12.9766
5.231499 114.507 12.91
5.263494 134.547 13.9786
5.295489 135.203 13.8886
5.327484 112.44 12.7509
5.359479 98.7623 11.9213
5.391474 104.397 12.3673
5.423469 93.0607 11.4843
5.455464 95.3397 11.7787
5.487459 92.6823 11.5912
5.519454 110.406 11.5717
5.551449 116.305 11.873
5.583444 93.3602 10.6543
5.615439 99.6263 10.929
5.647434 87.6579 10.3856
5.679429 84.1948 9.984156
5.711424 103.477 11.1202
5.743419 92.2858 10.5421
5.775414 85.7776 10.2425
5.807409 101.868 11.0672
5.839404 83.1194 9.951594
5.871399 95.8862 10.7862
5.903394 90.4388 10.4981
5.935389 85.4453 10.0705
5.967384 84.7635 10.1139
5.999380 75.6852 9.468785
6.031375 79.2837 9.736883
6.063370 73.7854 9.513862
6.095365 82.3674 10.0001
6.127360 78.5013 9.768709
6.159355 83.7814 10.0509
6.191350 88.6476 10.3243
6.223345 72.3204 9.374138
6.255340 82.6748 9.912734
6.287335 77.9675 9.718042
6.319330 74.9876 9.556487
6.351325 88.7545 10.2425
6.383320 77.4775 9.578926
6.415315 84.2794 10.0144
6.447310 73.055 9.407453
6.479305 98.1531 10.7769
6.511300 65.447 8.798191
6.543295 73.0071 9.505310
6.575290 65.7795 9.006038
6.607285 75.2057 9.543222
6.639280 80.3558 9.906311
6.671275 71.2184 9.346820
6.703270 76.6275 9.665291
6.735265 61.6266 8.610626
6.767260 75.3977 9.552573
6.799255 80.1849 9.776507
6.831250 84.4213 10.1064
6.863246 69.384 9.060720
6.895241 75.6027 9.538576
6.927236 75.41 9.523530
6.959231 74.0745 9.419366
6.991226 75.2452 9.524658
7.023221 72.7868 9.333546
7.055216 66.147 8.876590
7.087211 70.3675 9.169247
7.119206 64.0942 8.747546
7.151201 68.7205 9.069402
7.183196 73.1288 9.369275
7.215191 76.9084 9.610418
7.247186 71.2958 9.205503
7.279181 78.1319 9.789829
7.311176 83.517 9.902948
7.343171 80.2036 9.834202
7.375166 77.6146 9.606463
7.407161 80.1831 9.914730
7.439156 64.7676 8.939993
7.471151 76.0455 9.697580
7.503146 70.8769 8.667123
7.535141 76.7413 8.947187
7.567136 67.2954 8.420020
7.599131 59.7821 7.883051
7.631126 61.2944 7.954189
7.663121 68.1771 8.451415
7.695116 63.7267 8.269995
7.727111 59.7056 7.969077
7.759107 66.242 8.301024
7.791102 65.1341 8.334220
7.823097 63.3988 8.195814
7.855092 61.9272 8.090790
7.887087 64.0825 8.228008
7.919082 48.5308 7.105291
7.951077 48.835 7.231752
7.983072 58.8356 7.791207
8.015067 71.6551 8.812089
8.047062 59.5009 7.966198
8.079057 60.0892 7.937972
8.111052 64.8193 8.314285
8.143047 62.1394 8.076370
8.175042 68.9597 8.573063
8.207037 77.9964 9.160486
8.239032 73.9451 8.861193
8.271027 102.3 10.4178
8.303022 102.917 10.4013
8.335017 159.115 13.0396
8.367012 317.991 18.4431
8.399007 1184.28 35.5724
8.431002 28855.4 175.876
8.462997 957.048 31.9699
8.494992 270.657 16.9844
8.526987 119.73 11.2465
8.558982 115.099 11.1027
8.590977 87.802 9.744534
8.622973 83.9559 9.413071
8.654968 76.727 8.986561
8.686963 75.2765 9.020379
8.718958 69.3904 8.565492
8.750953 64.5389 8.205358
8.782948 68.4703 8.512100
8.814943 73.0711 8.893973
8.846938 75.1861 8.950594
8.878933 69.2277 8.535390
8.910928 66.8559 8.410317
8.942923 91.0861 9.776209
8.974918 79.5562 9.217880
9.006913 101.656 10.3647
9.038908 161.201 13.0855
9.070903 353.61 19.4644
9.102898 5547.58 76.9785
9.134893 1406.01 38.7414
9.166888 266.781 17.0001
9.198883 114.149 11.0874
9.230878 97.071 10.1681
9.262873 93.9828 10.0405
9.294868 83.7965 9.417196
9.326863 87.9736 9.719930
9.358858 84.9522 9.484477
9.390853 116.68 11.213
9.422848 120.267 11.3591
9.454843 133.3 11.8929
9.486838 225.515 15.5044
9.518834 504.974 21.6091
9.550829 1911.67 42.0672
9.582824 62483.9 240.956
9.614819 2135.51 44.4932
9.646814 544.411 22.4867
9.678809 230.008 14.6103
9.710804 162.994 12.3003
9.742799 103.952 9.855319
9.774794 94.0436 9.248402
9.806789 92.9772 9.320170
9.838784 64.9165 7.619092
9.870779 67.9883 7.857335
9.902774 62.1964 7.583081
9.934769 63.5186 7.682632
9.966764 60.0781 7.417120
9.998759 68.8378 7.969479
10.0308 60.8997 7.489436
10.0627 63.9759 7.626564
10.0947 69.6756 8.027201
10.1267 50.9336 6.824832
10.1587 52.887 6.870419
10.1907 51.535 6.925501
10.2227 49.7265 6.728026
10.2547 58.0021 7.299053
10.2867 59.0897 7.399242
10.3187 46.2289 6.482632
10.3507 56.0253 7.141641
10.3827 49.011 6.744947
10.4147 60.869 7.518243
10.4467 47.7409 6.496317
10.4787 53.5592 7.071216
10.5107 45.0425 6.477332
10.5427 53.5173 6.996759
10.5747 46.5689 6.507001
10.6067 40.1508 6.113469
10.6387 38.9128 5.965467
10.6707 46.2106 6.462914
10.7027 37.2504 5.805763
10.7346 45.538 6.470426
10.7666 49.3854 6.585313
10.7986 50.4505 6.853559
10.8306 61.1167 7.421382
10.8626 59.6846 7.349151
10.8946 48.9576 6.692474
10.9266 48.7572 6.661967
10.9586 52.1357 6.946902
10.9906 42.1174 6.216556
11.0226 49.8785 6.769843
11.0546 46.508 6.575633
11.0866 57.2081 7.281556
11.1186 51.331 6.819967
11.1506 53.2974 6.951705
11.1826 42.7381 6.257697
11.2146 50.9539 6.770282
11.2466 50.8252 6.799207
11.2786 46.5524 6.453448
11.3106 50.9532 6.861853
11.3426 45.9559 6.458141
11.3745 49.257 6.674354
11.4065 47.5331 6.544090
11.4385 50.6185 6.771042
11.4705 39.665 6.037160
11.5025 43.8364 6.055792
11.5345 45.1039 6.082969
11.5665 42.0695 5.817846
11.5985 42.6297 5.897278
11.6305 51.848 6.559675
11.6625 49.4679 6.459709
11.6945 57.3389 6.923948
11.7265 55.5462 6.808537
11.7585 57.5233 6.850540
11.7905 48.9185 6.430608
11.8225 46.3293 6.197947
11.8545 52.6894 6.658528
11.8865 59.4059 7.035726
11.9185 40.249 5.764594
11.9505 54.6577 6.734103
11.9825 44.5648 6.124098
12.0144 58.2525 7.006539
12.0464 54.187 6.720905
12.0784 55.5329 6.731118
12.1104 51.9065 6.714299
12.1424 56.889 6.850209
12.1744 60.8087 7.083857
12.2064 71.9381 7.788035
12.2384 61.1311 7.147499
12.2704 70.4352 7.630020
12.3024 75.5952 7.876522
12.3344 91.6214 8.705453
12.3664 187.439 12.5122
12.3984 818.124 26.2052
12.4304 10150.9 92.3698
12.4624 430.988 18.9853
12.4944 171.136 11.983
12.5264 84.8067 8.428695
12.5584 77.0521 7.939263
12.5904 65.5098 7.354996
12.6224 47.8158 6.299536
12.6543 52.5361 6.588929
12.6863 55.5801 6.775086
12.7183 51.9357 6.525915
12.7503 50.9359 6.346769
12.7823 50.9337 6.472259
12.8143 47.7732 6.318623
12.8463 54.0631 6.732901
12.8783 50.1851 6.418379
12.9103 50.1634 6.434280
12.9423 47.6803 6.272355
12.9743 56.2731 6.828073
13.0063 55.6412 6.875380
13.0383 39.26 5.746686
13.0703 48.7352 6.390609
13.1023 54.5504 6.746733
13.1343 45.96 6.215354
13.1663 52.7198 6.591755
13.1983 38.2444 5.561681
13.2303 50.6504 6.490943
13.2623 49.5127 6.427477
13.2942 50.7864 6.415057
13.3262 42.8048 5.973794
13.3582 52.1663 6.578737
13.3902 47.4928 6.322043
13.4222 47.8263 6.329995
13.4542 56.8063 6.884336
13.4862 45.5735 6.157173
13.5182 51.1621 6.161710
13.5502 40.1865 5.569757
13.5822 51.9851 6.283095
13.6142 41.3188 5.559261
13.6462 43.9863 5.728163
13.6782 50.9276 6.211002
13.7102 52.1531 6.252524
13.7422 48.3479 6.023692
13.7742 46.1998 5.842251
13.8062 44.8234 5.787525
13.8382 41.9942 5.588990
13.8702 56.5336 6.506235
13.9022 53.882 6.347760
13.9341 46.7229 5.942771
13.9661 61.6234 6.822760
13.9981 49.2473 6.093474
14.0301 54.2149 6.347443
14.0621 48.8907 6.025753
14.0941 53.8638 6.299619
14.1261 47.5306 5.921463
14.1581 40.6058 5.581761
14.1901 60.5188 6.752540
14.2221 58.1914 6.577314
14.2541 58.1614 6.637530
14.2861 67.3219 7.100765
14.3181 66.9485 7.090977
14.3501 71.9195 7.323515
14.3821 67.7234 7.120058
14.4141 65.7515 6.995110
14.4461 72.8948 7.429278
14.4781 85.5289 8.001516
14.5101 99.1071 8.588041
14.5421 146.629 10.4614
14.574 349.768 16.3022
14.606 2308.96 41.7917
14.638 4824.26 60.4373
14.67 445.13 18.3792
14.702 165.639 11.1916
14.734 105.452 8.876728
14.766 86.8539 8.011603
14.798 74.704 7.468643
14.83 83.2559 7.945549
14.862 66.9161 7.045906
14.894 67.3394 7.108646
14.926 63.7103 6.979024
14.958 63.7667 6.920250
14.99 68.4917 7.160299
15.022 58.3443 6.611804
15.054 51.0442 6.170203
15.086 56.5146 6.519906
15.118 62.9593 6.920068
15.15 62.2285 6.754716
15.182 59.1837 6.634698
15.214 69.3808 7.210399
15.2459 59.6081 6.683998
15.2779 64.406 6.931633
15.3099 62.229 6.843249
15.3419 58.6184 6.613821
15.3739 66.9382 7.089286
15.4059 61.7528 6.776925
15.4379 56.1552 6.519833
15.4699 64.1891 6.957749
15.5019 65.2529 6.698039
15.5339 59.8937 6.438045
15.5659 65.3543 6.687620
15.5979 65.0474 6.726059
15.6299 70.1822 6.973396
15.6619 61.2683 6.471305
15.6939 57.2843 6.266352
15.7259 63.7267 6.626629
15.7579 65.3823 6.656226
15.7899 71.1012 7.023989
15.8219 65.7161 6.698476
15.8539 76.9681 7.332114
15.8858 77.047 7.302557
15.9178 86.9173 7.734926
15.9498 92.8455 8.035095
15.9818 112.858 8.783226
16.0138 144.819 10.004
16.0458 364.366 15.8604
16.0778 2316.94 39.9639
16.1098 4545.85 56.0813
16.1418 430.762 17.2814
16.1738 180.01 11.1668
16.2058 111.666 8.780396
16.2378 87.2009 7.757357
16.2698 78.1308 7.299617
16.3018 78.269 7.353351
16.3338 71.5681 6.972231
16.3658 78.0122 7.315513
16.3978 63.8148 6.591370
16.4298 68.6862 6.919612
16.4618 69.6854 6.874497
16.4938 76.5922 7.242582
16.5257 78.0182 7.360152
16.5577 66.3998 6.725546
16.5897 66.3365 6.819743
16.6217 65.5094 6.709387
16.6537 63.0996 6.456203
16.6857 68.4372 6.850443
16.7177 62.6338 6.486151
16.7497 69.4172 6.930740
16.7817 84.4463 7.595040
16.8137 84.0184 7.568157
16.8457 98.4919 8.193000
16.8777 271.037 13.673
16.9097 2020.84 37.4269
16.9417 168.45 10.7947
16.9737 111.294 8.831929
17.0057 92.0978 7.939296
17.0377 83.0378 7.592132
17.0697 84.2812 7.600197
17.1017 83.5535 7.523817
17.1337 108.593 8.682564
17.1656 133.383 9.569418
17.1976 229.212 12.5849
17.2296 874.1 24.5793
17.2616 18196.9 112.217
17.2936 647.002 21.1034
17.3256 207.293 11.9415
17.3576 139.854 9.858853
17.3896 124.505 9.296135
17.4216 115.475 8.880940
17.4536 171.119 10.8101
17.4856 552.927 19.5296
17.5176 8836.78 78.1997
17.5496 388.809 16.4114
17.5816 148.027 10.0971
17.6136 80.6126 7.426083
17.6456 84.1158 7.630048
17.6776 61.3037 6.475543
17.7096 76.3194 7.270177
17.7416 71.6295 7.018205
17.7736 63.563 6.629876
17.8055 66.8231 6.817601
17.8375 64.4195 6.656143
17.8695 68.9747 6.887345
17.9015 59.1123 6.393349
17.9335 57.0576 6.243629
17.9655 55.2152 6.097114
17.9975 57.7228 6.277187
18.0295 65.1172 6.718580
18.0615 53.0508 5.977342
18.0935 56.6388 6.230279
18.1255 52.4128 5.969319
18.1575 55.6708 6.158239
18.1895 55.5862 6.165173
18.2215 73.088 7.053266
18.2535 109.09 8.657757
18.2855 2289.73 39.8275
18.3175 103.75 8.415362
18.3495 53.6518 6.036198
18.3815 55.8116 6.161954
18.4135 51.8443 5.952591
18.4454 66.3868 6.753524
18.4774 56.3243 6.217021
18.5094 53.7471 6.074400
18.5414 59.9832 6.373351
18.5734 57.1634 6.203458
18.6054 47.9076 5.750355
18.6374 61.8598 6.538454
18.6694 50.0717 5.834642
18.7014 52.2024 6.003578
18.7334 52.1421 5.974353
18.7654 45.0071 5.484951
18.7974 52.287 5.972572
18.8294 55.4125 6.055112
18.8614 45.1463 5.560242
18.8934 51.6923 5.894511
18.9254 49.3272 5.830518
18.9574 51.6492 5.929221
18.9894 64.3073 6.608388
19.0214 56.1629 6.248245
19.0534 48.3687 5.727784
19.0853 58.6895 6.364861
19.1173 53.1158 5.998546
19.1493 62.5903 6.544523
19.1813 87.6164 7.710688
19.2133 338.406 15.2816
19.2453 1121.96 27.851
19.2773 110.834 8.706787
19.3093 70.7111 6.991398
19.3413 57.8385 6.258884
19.3733 55.3941 6.138862
19.4053 56.7611 6.219472
19.4373 55.3031 6.091615
19.4693 56.3603 6.226642
19.5013 53.5238 6.025484
19.5333 54.3057 6.031414
19.5653 52.131 5.963867
19.5973 58.6084 6.363079
19.6293 53.5806 6.054891
19.6613 51.1837 5.844573
19.6933 52.7952 5.960709
19.7252 45.6747 5.565394
19.7572 45.0345 5.567424
19.7892 52.3811 5.958863
19.8212 46.8533 5.728872
19.8532 45.3903 5.581219
19.8852 38.2886 5.022221
19.9172 44.1982 5.486304
19.9492 49.5353 5.760589
19.9812 58.2252 6.333617
20.0132 53.7559 6.060604
20.0452 54.0807 6.065755
20.0772 54.02 6.057900
20.1092 68.3869 6.831907
20.1412 174.242 10.9448
20.1732 766.696 23.039
20.2052 82.2279 7.490147
20.2372 63.8951 6.602725
20.2692 47.1513 5.629878
20.3012 50.1438 5.765799
20.3332 54.6744 6.109942
20.3652 47.19 5.697893
20.3971 45.4703 5.511095
20.4291 45.9278 5.545658
20.4611 48.8125 5.772095
20.4931 51.1675 5.956174
20.5251 46.951 5.682334
20.5571 57.9122 6.295389
20.5891 48.1716 5.734657
20.6211 54.6125 6.170485
20.6531 43.6376 5.476018
20.6851 50.1029 5.862477
20.7171 49.2513 5.771560
20.7491 49.9467 5.800276
20.7811 52.8816 6.004635
20.8131 59.3664 6.328458
20.8451 43.0172 5.407641
20.8771 49.7584 5.836749
20.9091 53.4372 6.055243
20.9411 47.876 5.740376
20.9731 53.7309 6.024930
21.0051 48.9174 5.795948
21.037 62.2225 6.513852
21.069 40.879 5.276255
21.101 63.5706 6.591847
21.133 43.8352 5.407904
21.165 54.0384 6.074848
21.197 62.0152 6.530885
21.229 52.6247 5.941631
21.261 56.5615 6.186193
21.293 66.5689 6.694481
21.325 50.0931 5.832761
21.357 58.891 6.351904
21.389 57.9623 6.289607
21.421 59.0862 6.313200
21.453 70.2942 6.948541
21.485 51.0866 5.842338
21.517 64.7564 6.678545
21.549 55.3262 6.069657
21.581 67.2319 6.786135
21.613 61.1616 6.467903
21.645 72.0037 7.055906
21.6769 80.2341 7.397760
21.7089 67.5171 6.819352
21.7409 107.133 8.551969
21.7729 208.459 11.9864
21.8049 2648.73 42.7573
21.8369 602.364 20.3166
21.8689 154.002 10.2885
21.9009 86.3268 7.669567
21.9329 80.8443 7.431757
21.9649 75.975 7.197769
21.9969 72.7994 7.057874
22.0289 61.9553 6.524180
22.0609 69.0831 6.905487
22.0929 64.5087 6.654931
22.1249 58.7379 6.283450
22.1569 58.5374 6.220070
22.1889 65.3278 6.623537
22.2209 63.8479 6.644044
22.2529 65.4402 6.697058
22.2849 61.9415 6.540893
22.3168 76.234 7.251325
22.3488 71.7263 7.021156
22.3808 106.65 8.534823
22.4128 849.329 24.1273
22.4448 234.845 12.6831
22.4768 93.9644 8.057547
22.5088 69.3061 6.795420
22.5408 73.9916 7.077041
22.5728 69.1767 6.791208
22.6048 71.2099 6.976729
22.6368 69.6168 6.835159
22.6688 68.8274 6.852687
22.7008 77.0819 7.224908
22.7328 75.2444 7.190369
22.7648 82.9711 7.531255
22.7968 93.2921 7.973101
22.8288 139.07 9.807261
22.8608 374.556 16.0749
22.8928 7649 72.5826
22.9248 326.69 15.0071
22.9567 137.023 9.679874
22.9887 92.968 7.892921
23.0207 66.8903 6.668918
23.0527 78.4886 7.305464
23.0847 71.2 7.057437
23.1167 68.3533 6.833710
23.1487 64.5806 6.602195
23.1807 64.2972 6.644933
23.2127 60.5818 6.419503
23.2447 78.4711 7.336804
23.2767 63.6973 6.543546
23.3087 72.3606 6.997481
23.3407 74.512 7.096018
23.3727 74.0613 7.128616
23.4047 82.1363 7.455350
23.4367 103.029 8.382261
23.4687 293.621 14.2132
23.5007 2237.96 39.2733
23.5327 154.223 10.2526
23.5647 88.6459 7.805759
23.5966 71.6349 6.967486
23.6286 63.9594 6.575979
23.6606 64.9222 6.610171
23.6926 61.7876 6.496402
23.7246 65.7162 6.649647
23.7566 59.1388 6.294035
23.7886 63.6084 6.607707
23.8206 66.4759 6.662732
23.8526 74.9535 7.166023
23.8846 66.051 6.724977
23.9166 69.6533 6.869387
23.9486 70.2965 6.921854
23.9806 66.1318 6.683602
24.0126 65.4383 6.697253
24.0446 67.15 6.784974
24.0766 64.7738 6.605530
24.1086 73.3114 7.105882
24.1406 70.1094 6.861784
24.1726 84.6786 7.588387
24.2046 117.236 8.978152
24.2366 750.915 22.7288
24.2685 346.78 15.417
24.3005 105.46 8.506390
24.3325 89.8299 7.831075
24.3645 86.2926 7.686981
24.3965 124.089 9.212403
24.4285 357.919 15.6614
24.4605 2254.55 39.3741
24.4925 179.326 11.0602
24.5245 94.2932 7.979346
24.5565 82.3218 7.450967
24.5885 75.8545 7.210394
24.6205 71.7979 6.953707
24.6525 70.6612 6.968045
24.6845 66.7601 6.648561
24.7165 65.012 6.664400
24.7485 64.4377 6.641255
24.7805 64.6756 6.617535
24.8125 80.9205 7.466271
24.8445 65.9709 6.643252
24.8765 70.3505 6.913569
24.9084 72.6024 7.006297
24.9404 73.2258 7.078692
24.9724 117.329 8.944410
25.0044 684.643 21.7366
25.0364 85.8898 7.643434
25.0684 74.2247 7.085031
25.1004 62.6161 6.473138
25.1324 67.5979 6.880594
25.1644 63.2622 6.518023
25.1964 54.8894 6.057892
25.2284 58.2811 6.211006
25.2604 64.5662 6.627347
25.2924 51.4743 5.824376
25.3244 75.1814 7.134929
25.3564 66.3934 6.737564
25.3884 75.4255 7.188681
25.4204 99.0253 8.264485
25.4524 335.243 15.151
25.4844 776.409 23.0613
25.5164 121.294 9.127065
25.5483 80.6431 7.367825
25.5803 73.3048 7.109980
25.6123 58.2039 6.245167
25.6443 64.5006 6.605517
25.6763 62.6187 6.497640
25.7083 63.4954 6.556393
25.7403 63.7154 6.556688
25.7723 61.5391 6.505994
25.8043 61.079 6.409280
25.8363 61.4583 6.459118
25.8683 60.3177 6.423161
25.9003 65.4891 6.666153
25.9323 51.1704 5.906203
25.9643 64.8825 6.624975
25.9963 68.6196 6.860809
26.0283 75.2003 7.171389
26.0603 64.1019 6.558531
26.0923 65.2574 6.656350
26.1243 56.1346 6.160983
26.1563 63.6684 6.598810
26.1882 67.0187 6.737251
26.2202 65.1855 6.722938
26.2522 80.376 7.432002
26.2842 90.5561 7.855065
26.3162 174.97 10.9358
26.3482 1092.18 27.3681
26.3802 1068.77 27.0819
26.4122 153.857 10.2437
26.4442 91.1759 7.921343
26.4762 72.303 7.080665
26.5082 67.8422 6.790653
26.5402 65.1266 6.613995
26.5722 69.6589 6.891029
26.6042 65.0052 6.635770
26.6362 61.3699 6.473640
26.6682 61.7086 6.436338
26.7002 48.3753 5.720027
26.7322 56.7631 6.235218
26.7642 65.8441 6.675509
26.7962 63.3119 6.561458
26.8281 54.9049 6.084768
26.8601 63.3935 6.548444
26.8921 60.9846 6.440044
26.9241 63.8141 6.603360
26.9561 54.5803 6.066676
26.9881 68.1667 6.815194
27.0201 68.7023 6.860914
27.0521 106.127 8.487458
27.0841 372.309 15.9932
27.1161 1134.26 27.9105
27.1481 114.11 8.810106
27.1801 71.0438 6.911407
27.2121 51.9211 5.936102
27.2441 61.3501 6.384015
27.2761 53.0744 5.994445
27.3081 56.3994 6.157859
27.3401 53.2306 6.036088
27.3721 54.2145 6.090333
27.4041 55.3994 6.114932
27.4361 57.7028 6.219110
27.468 53.7914 5.982331
27.5 53.0039 6.008543
27.532 61.0194 6.497888
27.564 151.407 10.1442
27.596 105.115 8.539508
27.628 60.9659 6.478976
27.66 60.9553 6.456154
27.692 49.7247 5.789170
27.724 47.7872 5.665724
27.756 58.675 6.402000
27.788 51.3912 5.923074
27.82 54.0099 6.060294
27.852 50.4812 5.832546
27.884 58.9176 6.308461
27.916 42.667 5.365508
27.948 47.3653 5.606556
27.98 50.5451 5.865918
28.012 44.6358 5.738968
28.044 50.0695 5.985009
28.076 51.7544 6.158403
28.1079 45.9826 5.823259
28.1399 53.892 6.232966
28.1719 50.1996 6.058689
28.2039 55.2406 6.355962
28.2359 61.8661 6.772891
28.2679 55.4943 6.435490
28.2999 55.0854 6.358161
28.3319 46.0018 5.811675
28.3639 50.143 6.057054
28.3959 59.199 6.614426
28.4279 52.4167 6.133648
28.4599 63.6718 6.854153
28.4919 56.4847 6.441636
28.5239 71.0382 7.230889
28.5559 83.5766 7.880820
28.5879 261.938 13.9538
28.6199 874.638 25.4769
28.6519 106.025 8.899227
28.6839 68.649 7.138295
28.7159 61.6904 6.798293
28.7478 62.1269 6.717489
28.7798 64.8065 6.927836
28.8118 52.6521 6.163029
28.8438 70.6131 7.228693
28.8758 239.275 13.3849
28.9078 119.438 9.335223
28.9398 64.3892 6.886561
28.9718 60.5375 6.559300
29.0038 54.5115 6.327112
29.0358 75.0501 7.393610
29.0678 164.042 11.0117
29.0998 219.782 12.7456
29.1318 72.3564 7.313432
29.1638 60.6196 6.639132
29.1958 65.5582 6.883118
29.2278 62.9098 6.812592
29.2598 65.2768 6.951533
29.2918 62.3122 6.756409
29.3238 64.5205 6.837880
29.3558 59.1201 6.697255
29.3878 56.6314 6.467620
29.4197 65.4625 7.013770
29.4517 85.1402 7.911552
29.4837 419.879 17.6808
29.5157 201.058 12.1896
29.5477 75.9582 7.472948
29.5797 71.827 7.269889
29.6117 56.1165 6.457021
29.6437 61.1278 6.715248
29.6757 55.1074 6.344009
29.7077 59.4917 6.620906
29.7397 51.6678 6.144060
29.7717 47.3697 5.898209
29.8037 49.6211 6.018033
29.8357 57.2544 6.423249
29.8677 49.6618 6.017689
29.8997 59.863 6.625656
29.9317 61.2164 6.730360
29.9637 42.5191 5.582824
29.9957 70.8624 7.471451
30.0277 62.8887 7.090048
30.0596 53.1898 6.569007
30.0916 53.6283 6.610597
30.1236 59.0022 6.947367
30.1556 51.9322 6.446063
30.1876 69.3789 7.480859
30.2196 63.2097 7.183191
30.2516 51.8026 6.472931
30.2836 52.8298 6.494590
30.3156 57.9432 6.771039
30.3476 53.319 6.595716
30.3796 66.8498 7.424890
30.4116 52.5988 6.557724
30.4436 51.0844 6.439462
30.4756 78.9421 8.011691
30.5076 55.5527 6.734196
30.5396 67.9836 7.388186
30.5716 58.2904 6.760004
30.6036 66.5031 7.312367
30.6356 57.6983 6.820734
30.6676 70.0933 7.538915
30.6995 85.1516 8.387524
30.7315 572.925 21.5925
30.7635 86.5203 8.292727
30.7955 70.4525 7.513782
30.8275 78.3304 7.990173
30.8595 75.0242 7.700065
30.8915 106.907 9.362653
30.9235 750.28 24.7015
30.9555 220.268 13.4258
30.9875 88.8757 8.497228
31.0195 95.314 8.800927
31.0515 158.347 11.3746
31.0835 1772.08 38.1366
31.1155 145.953 10.885
31.1475 83.312 8.245577
31.1795 66.3786 7.319307
31.2115 74.2083 7.634711
31.2435 73.6803 7.711355
31.2755 69.3651 7.424799
31.3075 81.1617 8.090026
31.3394 410.333 18.2259
31.3714 258.691 14.5557
31.4034 100.859 9.090115
31.4354 64.6329 7.242095
31.4674 84.5449 8.303858
31.4994 99.0943 9.021592
31.5314 694.44 23.7503
31.5634 137.34 10.5277
31.5954 65.8609 7.341042
31.6274 61.7999 7.057936
31.6594 75.0089 7.780604
31.6914 65.1548 7.331267
31.7234 61.2344 6.978109
31.7554 53.2664 6.515364
31.7874 53.3021 6.523898
31.8194 59.4526 6.887027
31.8514 53.024 6.539242
31.8834 59.2458 6.930026
31.9154 60.6069 6.936749
31.9474 64.861 7.263672
31.9793 61.0463 6.985396
32.0113 57.1113 7.120848
32.0433 68.5397 7.831684
32.0753 67.6904 7.762338
32.1073 344.523 17.6818
32.1393 132.083 10.8785
32.1713 84.2501 8.612275
32.2033 91.6917 9.145056
32.2353 133.096 10.9917
32.2673 1372.31 35.3091
32.2993 243.706 14.8425
32.3313 87.7413 8.820639
32.3633 86.545 8.853294
32.3953 63.7983 7.604029
32.4273 68.045 7.841027
32.4593 67.746 7.838770
32.4913 85.1517 8.730277
32.5233 322.248 17.1299
32.5553 77.7622 8.376373
32.5873 57.7822 7.177025
32.6193 55.7118 7.004188
32.6512 54.1027 6.983453
32.6832 55.1733 7.150475
32.7152 62.2621 7.507677
32.7472 53.1137 6.844726
32.7792 56.2308 7.105076
32.8112 42.3537 6.075413
32.8432 54.1596 6.857232
32.8752 49.4532 6.587034
32.9072 48.3137 6.502447
32.9392 52.7324 6.841716
32.9712 59.4612 7.307715
33.0032 44.3513 6.306440
33.0352 48.4647 6.591181
33.0672 56.3158 7.045034
33.0992 42.3742 6.081578
33.1312 55.0027 6.991582
33.1632 50.2855 6.766930
33.1952 52.9565 6.887003
33.2272 52.3217 6.925361
33.2591 60.1377 7.300788
33.2911 50.8836 6.764450
33.3231 58.492 7.340785
33.3551 59.7929 7.263988
33.3871 77.7224 8.353309
33.4191 283.493 16.0433
33.4511 149.551 11.5792
33.4831 85.7512 8.911640
33.5151 57.3695 7.179059
33.5471 46.4691 6.510422
33.5791 54.5985 6.999276
33.6111 52.5706 6.991837
33.6431 55.6935 7.037661
33.6751 68.6201 7.859924
33.7071 65.2656 7.627433
33.7391 123.697 10.5876
33.7711 973.087 29.619
33.8031 214.897 13.9112
33.8351 69.4055 7.892730
33.8671 72.1194 8.030958
33.8991 57.0205 7.028419
33.931 52.9581 6.775306
33.963 47.0611 6.381932
33.995 58.2699 7.613121
34.027 42.3693 6.462236
34.059 54.5338 7.289014
34.091 53.3194 7.234047
34.123 52.7999 7.261187
34.155 61.4186 7.766645
34.187 186.958 13.6647
34.219 55.6093 7.472101
34.251 62.0834 7.900696
34.283 43.7769 6.565256
34.315 46.9561 6.764404
34.347 54.643 7.294789
34.379 46.1408 6.766416
34.411 58.5805 7.652869
34.443 51.7137 7.183137
34.475 63.8201 8.000528
34.507 502.154 22.3261
34.539 69.93 8.300126
34.5709 53.2182 7.323422
34.6029 51.0715 7.160927
34.6349 53.8055 7.338068
34.6669 45.5183 6.640548
34.6989 47.7543 6.914206
34.7309 51.1166 7.109881
34.7629 49.1199 6.943380
34.7949 49.6397 6.956241
34.8269 45.585 6.704848
34.8589 56.2601 7.428879
34.8909 66.6282 8.128092
34.9229 583.762 24.1381
34.9549 78.36 8.796409
34.9869 53.4266 7.240162
35.0189 57.1053 7.473745
35.0509 50.5867 7.015277
35.0829 51.5966 7.055538
35.1149 47.9589 6.841579
35.1469 58.2799 7.700793
35.1789 48.8664 7.027270
35.2108 52.7492 7.228816
35.2428 47.0586 6.761324
35.2748 40.4716 6.272880
35.3068 60.1187 7.854953
35.3388 50.2302 6.964588
35.3708 56.8183 7.595419
35.4028 49.6928 7.047472
35.4348 72.261 8.367303
35.4668 137.257 11.7275
35.4988 52.9093 7.238604
35.5308 56.6781 7.561303
35.5628 44.8819 6.646728
35.5948 57.8603 7.584964
35.6268 45.4004 6.628964
35.6588 54.5215 7.339062
35.6908 44.7089 6.650334
35.7228 49.0522 6.953261
35.7548 58.0055 7.596657
35.7868 62.0862 7.855898
35.8188 215.763 14.6207
35.8507 90.9221 9.408803
35.8827 59.7973 7.775971
35.9147 50.6135 7.076143
35.9467 55.5503 7.405231
35.9787 108.758 10.4452
36.0107 104.51 10.6404
36.0427 52.8819 7.644514
36.0747 58.8086 7.969158
36.1067 56.7274 7.882365
36.1387 49.7638 7.396784
36.1707 45.535 7.099952
36.2027 43.7034 6.981557
36.2347 54.869 7.772302
36.2667 54.9003 7.762526
36.2987 43.806 6.947400
36.3307 40.4046 6.649462
36.3627 39.5744 6.514767
36.3947 40.4552 6.738075
36.4267 58.5369 8.070368
36.4587 55.6797 7.848050
36.4906 36.9652 6.325480
36.5226 50.4598 7.517367
36.5546 44.8157 7.056258
36.5866 54.7075 7.729184
36.6186 57.9177 8.009314
36.6506 159.28 13.2901
36.6826 108.972 11.0587
36.7146 36.3169 6.400155
36.7466 45.4399 6.994110
36.7786 48.4325 7.290258
36.8106 49.0572 7.275185
36.8426 60.5243 8.202252
36.8746 56.5306 7.788168
36.9066 64.889 8.464842
36.9386 68.8675 8.720012
36.9706 183.015 14.3105
37.0026 156.002 13.1224
37.0346 70.2363 8.662738
37.0666 129.249 11.9594
37.0986 57.4712 7.954185
37.1305 61.7597 8.304061
37.1625 50.9845 7.479774
37.1945 59.6207 8.077488
37.2265 58.2779 7.970640
37.2585 54.9028 7.734330
37.2905 64.2366 8.436737
37.3225 62.5567 8.321722
37.3545 133.308 12.1526
37.3865 70.7427 8.863280
37.4185 52.457 7.710925
37.4505 46.3345 6.996227
37.4825 55.8464 7.768647
37.5145 60.8581 8.204917
37.5465 50.7219 7.512400
37.5785 45.8267 7.090411
37.6105 73.1691 8.998365
37.6425 160.32 13.2236
37.6745 270.743 17.3755
37.7065 73.5439 9.079643
37.7385 39.8178 6.431221
37.7705 57.9721 7.872641
37.8024 57.1148 7.961489
37.8344 72.258 8.969377
37.8664 100.491 10.5232
37.8984 360.437 19.9238
37.9304 73.103 9.048348
37.9624 54.7545 7.710986
37.9944 49.7889 8.072296
38.0264 65.8065 9.172210
38.0584 75.4145 9.971457
38.0904 83.0731 10.3298
38.1224 60.0996 8.812929
38.1544 54.4343 8.416647
38.1864 46.1782 7.662180
38.2184 47.4155 7.752373
38.2504 60.8228 8.928269
38.2824 40.7871 7.101958
38.3144 46.0089 7.741704
38.3464 48.3657 7.917627
38.3784 39.4296 7.119902
38.4104 60.9826 8.913428
38.4423 54.5019 8.168846
38.4743 61.7911 8.854020
38.5063 84.1857 10.4401
38.5383 269.761 18.8382
38.5703 74.092 9.922092
38.6023 56.0422 8.488082
38.6343 95.9698 11.2267
38.6663 425.435 23.6306
38.6983 172.005 14.9545
38.7303 68.4311 9.433428
38.7623 71.2869 9.669208
38.7943 54.1529 8.333764
38.8263 58.673 8.719958
38.8583 48.7308 8.015852
38.8903 53.3017 8.189459
38.9223 46.5464 7.626346
38.9543 53.2128 8.259816
38.9863 59.3284 8.757218
39.0183 56.5995 8.622575
39.0503 80.8859 10.2089
39.0822 54.8739 8.384038
39.1142 63.4485 9.072448
39.1462 41.5159 7.273241
39.1782 46.8146 7.713068
39.2102 51.9644 8.172877
39.2422 57.0526 8.605476
39.2742 66.1615 9.174505
39.3062 61.7075 8.931802
39.3382 119.964 12.3467
39.3702 303.494 19.8277
39.4022 72.1044 9.678095
39.4342 54.3996 8.499459
39.4662 84.9267 10.4287
39.4982 63.1772 8.849148
39.5302 59.3598 8.731650
39.5622 71.0682 9.712748
39.5942 72.766 9.546744
39.6262 83.6251 10.5277
39.6582 304.05 19.9841
39.6902 126.984 12.8374
39.7221 62.4788 8.932916
39.7541 61.1872 8.944925
39.7861 51.7945 8.107038
39.8181 64.8884 9.259411
39.8501 59.2079 8.775986
39.8821 66.7538 9.230587
39.9141 61.8298 8.804608
39.9461 150.495 13.9675
39.9781 500.218 25.5218
40.0101 103.385 12.7136
40.0421 483.643 27.7462
40.0741 81.1163 11.3927
40.1061 59.3446 9.708799
40.1381 63.6247 10.0252
40.1701 64.5233 10.2186
40.2021 57.2567 9.643524
40.2341 51.8956 9.054402
40.2661 36.2753 7.555615
40.2981 47.4999 8.588588
40.3301 47.5976 8.812875
40.362 74.2496 10.8312
40.394 64.8002 10.1419
40.426 68.5275 10.4773
40.458 119.617 13.8436
40.49 710.025 33.6628
40.522 82.0638 11.2622
40.554 61.854 9.902234
40.586 58.0361 9.676385
40.618 56.7333 9.574863
40.65 70.0649 10.5261
40.682 48.977 8.867119
40.714 56.2401 9.521600
40.746 53.3706 9.158579
40.778 62.4328 10.0096
40.81 193.249 17.5622
40.842 77.2773 11.169
40.874 53.8916 9.304506
40.906 63.9875 9.951888
40.938 38.4746 7.553562
40.97 66.0317 10.1777
41.0019 79.9953 11.3289
41.0339 48.8252 8.800360
41.0659 45.856 8.497926
41.0979 54.5052 9.350421
41.1299 43.4646 8.208592
41.1619 52.2423 9.125669
41.1939 34.1634 7.395556
41.2259 52.695 9.230989
41.2579 50.9686 8.870566
41.2899 40.3703 7.981391
41.3219 59.0709 9.762177
41.3539 67.6747 10.3735
41.3859 35.3428 7.493472
41.4179 45.2308 8.486609
41.4499 46.9162 8.710325
41.4819 55.0005 9.159023
41.5139 55.288 9.203593
41.5459 171.057 16.617
41.5779 104.67 12.8183
41.6099 52.9247 8.967298
41.6418 55.1653 9.340028
41.6738 48.8049 8.943506
41.7058 47.1752 8.539573
41.7378 79.8552 11.2792
41.7698 111.797 13.3355
41.8018 48.5879 8.837115
41.8338 45.011 8.414711
41.8658 58.0945 9.561682
41.8978 118.259 13.7376
41.9298 50.8295 8.919594
41.9618 46.7434 8.493771
41.9938 49.4566 9.747866
42.0258 43.8628 9.085667
42.0578 50.1037 9.945170
42.0898 31.2284 7.572697
42.1218 49.4888 9.919850
42.1538 42.7861 9.137385
42.1858 35.7467 8.196842
42.2178 38.9161 8.701302
42.2498 52.6052 10.0657
42.2818 45.441 9.341968
42.3137 38.2624 8.572076
42.3457 26.459 7.018083
42.3777 50.4924 9.778592
42.4097 41.5108 8.843047
42.4417 45.6541 9.282273
42.4737 32.2628 7.884944
42.5057 56.4661 10.4956
42.5377 33.9799 7.984928
42.5697 31.2133 7.779570
42.6017 52.2065 9.926081
42.6337 52.3146 9.905687
42.6657 42.16 8.950835
42.6977 37.1008 8.444933
42.7297 47.5876 9.529957
42.7617 28.4781 7.282705
42.7937 65.4321 11.1294
42.8257 103.816 14.0658
42.8577 53.7674 10.1211
42.8897 31.6187 7.774369
42.9217 45.081 9.216302
42.9536 38.3747 8.587754
42.9856 34.3922 8.132480
43.0176 52.1924 9.953675
43.0496 44.652 9.264937
43.0816 47.2306 9.622627
43.1136 81.905 12.64
43.1456 31.7958 7.803492
43.1776 50.1967 9.787007
43.2096 37.7376 8.424538
43.2416 33.2613 8.019131
43.2736 43.0179 9.159283
43.3056 56.8856 10.5469
43.3376 56.9062 10.3506
43.3696 118.755 15.2143
43.4016 66.5801 11.2418
43.4336 48.4581 9.570648
43.4656 46.6366 9.517434
43.4976 38.5617 8.698462
43.5296 32.6116 8.018743
43.5616 40.8445 8.704553
43.5935 47.2287 9.369436
43.6255 48.0101 9.540743
43.6575 50.4055 9.597752
43.6895 53.9133 9.922107
43.7215 397.521 27.6935
43.7535 160.774 17.6779
43.7855 51.9501 10.0257
43.8175 56.1612 10.4539
43.8495 32.2626 7.768403
43.8815 48.2773 9.620110
43.9135 44.037 9.155276
43.9455 32.8579 7.847360
43.9775 40.6674 8.743953
44.0095 40.6461 10.5295
44.0415 46.6603 11.2061
44.0735 52.0226 11.5965
44.1055 26.6122 8.338109
44.1375 51.0817 11.8292
44.1695 85.8967 14.9416
44.2015 39.6095 10.0641
44.2334 46.3464 11.1598
44.2654 128.802 18.618
44.2974 184.537 22.2387
44.3294 66.8259 13.4354
44.3614 52.844 11.8161
44.3934 52.6702 11.9163
44.4254 43.1537 10.743
44.4574 48.8874 11.5413
44.4894 50.3577 11.8794
44.5214 45.3661 10.946
44.5534 34.2911 9.562253
44.5854 39.5593 10.1834
44.6174 49.2326 11.3824
44.6494 64.7291 13.105
44.6814 47.8075 11.1057
44.7134 44.4687 11.0352
44.7454 44.1572 10.8625
44.7774 36.5613 9.800063
44.8094 41.4027 10.5637
44.8414 47.8234 11.3204
44.8733 47.2688 11.2748
44.9053 150.011 20.178
44.9373 56.2806 12.2808
44.9693 23.5833 7.780917
45.0013 49.5752 11.4762
45.0333 40.8595 10.6032
45.0653 37.9538 10.1209
45.0973 44.2574 10.8757
45.1293 54.6447 12.0943
45.1613 110.432 17.2361
45.1933 91.2462 15.6798
45.2253 56.2795 12.0123
45.2573 48.6339 11.2125
45.2893 69.7092 13.6746
45.3213 57.1277 12.4564
45.3533 46.9252 11.1738
45.3853 57.7344 12.3212
45.4173 45.6772 10.8236
45.4493 222.312 24.5293
45.4813 146.503 19.9451
45.5132 243.691 25.5291
45.5452 69.1536 13.7081
45.5772 62.1285 13.0008
45.6092 35.5137 9.426525
45.6412 45.0666 10.915
45.6732 49.8561 11.5891
45.7052 51.1919 11.7204
45.7372 48.5169 11.4186
45.7692 85.6317 14.9939
45.8012 41.8265 10.4739
45.8332 42.8845 10.641
45.8652 56.2 12.3272
45.8972 95.927 16.0576
45.9292 88.3077 15.3437
45.9612 41.4263 10.4618
45.9932 68.1302 16.2663
46.0252 191.149 27.2327
46.0572 42.3622 12.8185
46.0892 23.0288 9.096641
46.1212 46.3725 13.1496
46.1531 34.9721 11.6678
46.1851 58.5941 15.0214
46.2171 30.7815 10.8685
46.2491 37.7365 11.9412
46.2811 37.5338 11.3751
46.3131 41.5491 12.5152
46.3451 56.0865 14.7068
46.3771 36.341 11.8929
46.4091 25.8687 9.867501
46.4411 39.0033 12.2765
46.4731 42.519 12.8183
46.5051 52.1673 14.1841
46.5371 38.1443 12.1331
46.5691 31.5605 10.9604
46.6011 49.5355 13.8858
46.6331 37.7778 11.8997
46.6651 42.4042 12.7912
46.6971 27.7754 10.3393
46.7291 26.4608 10.1292
46.7611 115.223 21.1629
46.7931 52.3395 14.2899
46.825 67.112 16.0893
46.857 76.0862 17.2003
46.889 36.2501 11.7041
46.921 38.4047 12.1265
46.953 44.5685 13.0803
46.985 42.509 12.4633
47.017 37.8054 12.0077
47.049 55.3075 14.6121
47.081 67.0049 16.0003
47.113 42.9421 12.9197
47.145 35.0448 11.6585
47.177 49.1021 13.7023
47.209 66.4554 16.0866
47.241 32.2468 11.1501
47.273 43.1821 12.8068
47.305 36.4853 11.6539
47.337 51.5941 14.1277
47.369 47.2153 13.106
47.401 38.5427 12.2167
47.433 33.2781 11.3619
47.4649 48.0875 13.574
47.4969 54.574 14.4425
47.5289 34.9089 11.5781
47.5609 54.4464 14.5583
47.5929 44.9621 12.8899
47.6249 26.8983 10.0904
47.6569 66.8814 16.0603
47.6889 54.359 14.4128
47.7209 67.1284 16.1884
47.7529 47.6339 13.5847
47.7849 43.7371 12.9846
47.8169 51.0187 14.0844
47.8489 38.4615 12.2108
47.8809 34.8848 11.4953
47.9129 51.4543 14.0806
47.9449 46.8007 13.4187
47.9769 86.5848 18.3353
48.0089 154.267 34.8524
48.0409 158.481 35.2223
48.0729 85.9956 26.0299
48.1048 55.6623 20.9323
48.1368 70.68 23.5942
48.1688 31.7389 15.8141
48.2008 69.3976 23.3329
48.2328 53.5285 20.5229
48.2648 33.0261 16.1228
48.2968 112.449 29.7591
48.3288 102.505 28.4298
48.3608 49.2565 19.3044
48.3928 49.3075 18.8992
48.4248 23.667 13.6641
48.4568 44.3037 18.6678
48.4888 45.0493 18.7907
48.5208 55.1992 20.8633
48.5528 183.263 38.0017
48.5848 76.7156 24.528
48.6168 46.6831 19.1156
48.6488 27.7251 14.4334
48.6808 42.1043 17.3586
48.7128 104.344 28.677
48.7447 181.385 37.589
48.7767 27.1177 14.5351
48.8087 51.3739 20.0533
48.8407 77.5562 24.7159
48.8727 98.2594 27.5513
48.9047 71.0867 23.6956
48.9367 86.0429 26.043
48.9687 85.5403 25.9435
49.0007 54.8872 20.7878
49.0327 55.1769 20.8649
49.0647 54.6842 20.7735
49.0967 53.9394 20.6029
49.1287 30.343 15.4324
49.1607 49.0561 19.6026
49.1927 20.4741 10.8973
49.2247 40.27 17.48
49.2567 102.43 28.3181
49.2887 85.4803 25.8521
49.3207 86.3146 26.0061
49.3527 59.8926 21.6965
49.3846 106.256 28.9152
49.4166 51.658 20.1352
49.4486 44.2258 18.6443
49.4806 50.4172 19.9078
49.5126 12.4538 9.769954
49.5446 46.3487 18.6264
49.5766 39.5842 17.129
49.6086 35.9652 16.8053
49.6406 31.4539 15.6039
49.6726 71.9987 23.7728
49.7046 31.5249 15.7624
49.7366 35.4493 16.2288
49.7686 42.9603 18.3238
49.8006 43.5018 18.4175
49.8326 43.2525 18.2638
49.8646 38.3305 17.3501
49.8966 70.5041 23.5473
49.9286 16.5079 11.3318
49.9606 54.9881 20.7902
49.9896 8.616170 8.152978